#   1 NUMBER                 Running object number                                     
#   2 FLUX_BEST              Best of FLUX_AUTO and FLUX_ISOCOR                          [count]
#   3 X_IMAGE                Object position along x                                    [pixel]
#   4 Y_IMAGE                Object position along y                                    [pixel]
#   5 A_IMAGE                Profile RMS along major axis                               [pixel]
#   6 B_IMAGE                Profile RMS along minor axis                               [pixel]
#   7 THETA_IMAGE            Position angle (CCW/x)                                     [deg]
         1     166.8475   1724.015    744.823    95.568    10.701  89.9
         2     584.5637   1676.394    532.992    86.305    13.959 -82.1
         3     23.85301   1256.228    300.280    55.982     3.223 -85.7
         4     279.0441   1460.728    134.346   117.894    38.665   4.6
         5     243.7769   1709.005    235.378    24.705    21.473 -82.3
         6     545.3489   1046.373     69.196   130.695    45.961 -13.1
         7     359.2569    499.866     61.696    90.418    11.819   6.5
         8     328.2843    618.328     11.428   124.566     7.531  -0.0
         9     368.2795   1340.936    176.869    45.919    12.659  10.8
        10     209.7148    879.029    107.305    33.453     7.473  10.9
        11     66.27811    692.161    312.625    20.357    13.822 -78.1
        12     29.88615    867.136    224.436    18.227    15.313  87.1
        13     55.47966   1116.845    256.426    43.541    15.031  10.1
        14      34.3724    845.800    118.971     5.847     4.334  79.1
        15     73.06301    285.754    256.149     5.820     5.522  21.5
        16     1.244338    321.603     87.423     1.581     1.450 -39.9
        17     27.19658   1061.240    358.710    40.709     6.908  68.5
        18      35.2086    949.292    227.086    12.191     6.888 -81.4
        19     8.553802    526.323    107.868     1.711     1.620  41.7
        20     247.6075   1190.364    350.241    16.778     8.967  28.1
        21     25.89896   1283.433    287.741    27.972     2.673  35.4
        22     232.5494   1191.993    339.991    12.499     7.567  18.0
        23     9.061616    811.126    141.544     3.354     3.186  40.2
        24      9.40859    901.890    158.405     4.594     3.824 -54.2
        25     11.30206   1082.590    162.541     5.807     4.480 -76.0
        26      20.9172    916.821    236.570    12.727     7.562 -68.1
        27     18.26032    943.238    163.201     3.399     2.606  76.9
        28     31.19837    864.405    247.757    12.260     3.761 -79.7
        29     49.50095   1448.463    190.218     9.266     6.277  19.8
        30     1.655996    803.880    205.286     6.705     2.602 -81.7
        31     32.04042    492.048    426.017    35.441    10.908 -37.5
        32     8.289895    573.875    166.026     1.880     1.672  45.0
        33     1.741247    258.770    144.338     1.583     1.319   9.1
        34     42.03111    858.522    246.721     7.818     5.355  76.1
        35     58.82162   1336.310    210.171     6.672     4.649  -0.9
        36     98.22908    353.943    573.464    66.187    27.533  34.2
        37     90.95209   1272.909   1053.324    46.210    13.346  87.8
        38     1.057868    394.057    159.298     1.361     1.331 -14.3
        39     1.262145    568.515    163.022     1.493     1.242 -79.0
        40     18.44872   1177.822    183.562     2.169     1.987 -25.9
        41      1.56557   1212.191    162.866     1.280     1.198  -3.2
        42     12.68664    963.016    189.415     3.212     2.351  69.9
        43     9.487674    878.319    182.088     2.416     1.878  42.0
        44     1.269199    510.608    169.458     1.422     1.358   2.0
        45     9.700129   1024.879    178.883     1.672     1.618  -3.6
        46     8.737893   1072.270    177.977     1.552     1.424  -5.7
        47     8.011581    983.091    178.039     1.482     1.421 -15.9
        48     7.788185   1138.974    178.842     1.513     1.394  -3.4
        49     167.9403   1535.482    331.288    16.094     8.819  14.6
        50   0.08480188    853.420    170.478     0.853     0.818  60.0
        51     44.95855   1665.228    224.623     6.309     4.864 -19.1
        52     31.74288   1244.771    324.352    10.203     4.443   7.7
        53     36.73653   1596.277    209.875    15.061     2.006   5.7
        54    0.1735308    929.360    175.973     0.954     0.889  77.6
        55    0.2331161   1005.191    174.442     1.003     0.917 -23.6
        56     32.56569   1594.204    217.561     9.252     3.062  -2.2
        57    0.1208815   1231.139    175.943     0.723     0.713   3.7
        58     25.03793    825.394    408.245    17.885    11.508  85.9
        59    0.9772013   1167.255    187.937     1.264     1.234  33.9
        60     21.76685   1312.031    231.027     3.204     2.472  84.6
        61     11.80169   1190.606    200.060     1.615     1.545  -0.1
        62      22.6131   1600.540    297.709    20.382    10.271 -19.2
        63     6.495895    949.088    214.637     3.805     1.800 -12.0
        64    0.6208764    869.741    196.160     1.231     1.146  43.9
        65    0.6710064   1148.321    193.928     1.145     1.070 -16.3
        66     1.631704    844.387    208.495     1.526     1.411  31.5
        67     13.68604   1364.037    311.990    17.643     9.035   6.9
        68     2.423261   1136.583    214.971     1.537     1.420 -12.5
        69     1.043828    853.146    210.015     1.399     1.335  30.1
        70     0.096652   1036.472    199.813     0.861     0.718   1.6
        71      0.44847    790.010    210.486     1.166     1.128  76.4
        72     1.447435   1003.667    240.728     5.013     2.674  43.0
        73     1.238002    992.926    244.348     5.194     2.090  55.3
        74     0.449037    793.337    235.990     4.064     1.056 -59.0
        75    0.7043289    810.156    217.316     1.399     1.327  44.8
        76     3.023567   1165.369    223.115     1.535     1.423  -4.2
        77    0.3411894   1205.844    220.718     1.309     1.230  16.2
        78    0.2258468    320.613    223.513     1.707     0.945 -31.5
        79     22.49907   1148.214    309.697     9.258     5.140  -6.5
        80     0.194866    822.637    222.662     1.001     0.867  40.4
        81     54.16813   1720.786    511.545    22.177    11.736  90.0
        82    0.4224894    812.172    229.778     1.342     1.211  33.9
        83     5.556261    284.955    247.082     1.949     1.657 -58.3
        84     3.364496   1036.431    244.092     1.665     1.614 -25.8
        85    0.5469443   1025.058    235.100     1.411     1.336 -10.8
        86     26.40414   1020.305    282.865     2.245     2.185  61.2
        87    0.3588294   1498.571    232.309     1.126     1.016  37.3
        88     8.866188   1512.304    242.793     1.486     1.388  31.6
        89     1.123505   1014.099    252.962     4.996     2.254   5.2
        90     10.49815   1417.561    308.114     5.420     4.244 -23.6
        91     1.315021    990.250    257.059     4.568     2.462 -14.8
        92    0.2449113   1328.050    238.752     1.018     0.924  15.9
        93    0.9995964    809.666    248.184     1.412     1.368 -82.1
        94     1.530397   1292.086    248.394     1.299     1.226  -0.0
        95     3.082555   1513.018    251.915     1.379     1.317  33.5
        96    0.2638902   1055.340    244.870     1.196     1.138 -11.6
        97     134.8348   1532.204    339.881    10.676     7.566  -1.5
        98    0.8849813    976.297    253.085     1.583     1.422 -31.4
        99     18.21161   1410.966    295.724     4.216     2.495 -17.1
       100     11.97394   1337.826    300.338     3.285     3.045 -28.3
       101       3.5493   1068.823    267.140     1.614     1.551   4.6
       102    0.2204394   1549.441    252.840     0.996     0.890  45.6
       103     26.50479   1260.537    345.849     4.449     3.648 -23.7
       104     1.487874   1275.421    263.095     1.353     1.297   7.2
       105    0.2016913   1365.669    259.533     0.916     0.890  42.9
       106    0.3933046   1283.686    265.481     1.138     1.067  16.9
       107      13.7164    902.438    364.044     3.089     2.255  61.7
       108    0.0926443   1473.192    264.797     0.759     0.666  42.5
       109    0.5103748   1373.881    273.319     1.201     1.146  43.4
       110    0.1690366   1019.289    268.463     1.174     0.991  -4.7
       111    0.2378086    781.435    282.562     2.525     0.893 -52.5
       112     0.316923    994.702    269.062     1.059     0.894 -50.3
       113    0.4848837   1655.536    276.742     1.213     1.130  36.7
       114     0.888379    872.383    297.387     2.086     1.477  72.7
       115     4.146545    292.741    335.497     7.354     4.260  48.4
       116      1.22855    817.977    288.936     2.285     1.508  47.7
       117     4.714674   1299.670    292.344     1.706     1.559  20.8
       118    0.7796615   1357.823    282.758     1.408     1.282  30.7
       119    0.2820642   1567.201    278.139     1.171     1.067  43.7
       120     10.42952   1701.117    373.658    10.644     2.972 -74.3
       121      3.41057    305.942    321.543     5.523     5.038 -63.0
       122    0.5488958   1466.445    304.640     2.295     1.729  21.8
       123      2.86769   1461.206    313.990     2.487     2.227 -41.9
       124      0.14992    941.565    285.006     1.079     0.937  87.8
       125      15.8837   1007.283    316.407     2.047     1.890  11.3
       126    0.3606829    878.333    292.888     1.636     1.329  66.3
       127    0.3866739    836.102    288.743     1.273     1.244 -80.6
       128    0.4003618   1087.464    287.212     1.158     1.095   9.5
       129     5.240502    716.976    364.781     7.592     4.912 -57.6
       130    0.5080852    793.091    290.835     1.238     0.912  89.7
       131     2.118959   1228.576    301.702     1.639     1.519  19.8
       132     3.251938    746.492    342.579     9.092     3.266 -26.6
       133     10.81164   1027.389    312.283     2.059     1.709 -22.8
       134     2.591431    829.453    303.196     1.555     1.446  55.1
       135    0.1810601    912.012    292.533     1.028     1.010   8.2
       136     26.11002    912.861    489.857    17.496    13.232  -6.4
       137    0.6494265    760.560    317.416     2.884     2.193 -68.5
       138     2.172486    730.144    350.813     5.225     3.088 -60.5
       139     11.95302   1236.933    360.608     4.088     3.002 -59.1
       140    0.5371701   1103.416    307.252     1.235     1.180 -45.6
       141    0.7030391    991.527    308.483     1.360     1.270   9.9
       142     1.834666    631.731    319.307     1.601     1.501  52.9
       143    0.7463362    956.862    311.821     1.279     1.240  29.9
       144    0.3853335    774.226    319.164     2.468     1.143 -46.8
       145     3.652572   1014.891    331.900     1.677     1.587 -37.7
       146      11.9563   1225.400    351.379     3.290     2.583 -45.5
       147      26.1347   1320.114    361.249     2.793     2.379 -32.9
       148   0.09081191    922.784    312.538     0.918     0.718 -89.1
       149    0.4050036   1464.422    325.453     2.193     1.525  34.9
       150     7.126115   1307.562    353.705     1.950     1.788 -18.0
       151       1.8521   1348.514    336.928     1.827     1.604 -22.3
       152       9.5223   1190.672    398.002     6.534     3.263 -47.3
       153    0.2093476    885.875    326.116     1.223     1.052  52.1
       154     16.54975   1308.265    430.986     5.733     5.528 -77.0
       155     2.149906    953.044    336.450     1.429     1.376  52.1
       156     10.11823   1165.429    386.790     6.030     4.441 -75.2
       157    0.3702815   1646.423    330.942     1.113     1.010  70.9
       158     13.55911    848.493    418.633     5.069     3.677  88.2
       159   0.05861279    267.134    326.848     0.787     0.659  45.1
       160    0.2758319   1670.082    333.910     1.051     0.922  50.4
       161    0.1008774    777.178    333.296     0.940     0.828  70.5
       162     17.45884   1136.872    392.657     2.536     2.230 -66.9
       163    0.3820509   1030.941    339.448     1.274     1.199  -8.3
       164    0.3120204    849.139    339.469     1.159     1.109  81.3
       165     16.50892   1610.012    388.527     3.269     2.924 -49.7
       166    0.4352846    813.507    343.843     1.762     0.993 -89.6
       167    0.5660797   1651.047    338.917     1.190     1.083  24.5
       168     4.073243    735.860    358.428     1.653     1.632 -78.8
       169     4.656845   1641.885    356.109     1.719     1.451  74.1
       170     1.669448   1434.033    347.621     1.498     1.429  13.6
       171     0.746223   1660.289    344.932     1.245     1.138  60.5
       172    0.2717453    875.059    346.987     1.407     1.344 -23.7
       173    0.6663671   1356.901    349.448     1.334     1.294  17.7
       174    0.1914367   1477.270    348.523     1.166     1.055  45.8
       175     44.47224   1067.575    455.242     6.769     3.956  20.9
       176    0.5187973    880.109    349.361     1.564     1.299  55.5
       177     0.144856    493.649    344.622     1.031     0.940 -32.9
       178    0.7395433   1043.242    352.562     1.436     1.313 -12.4
       179     6.394012   1020.149    359.113     1.520     1.462 -38.7
       180     5.162242    778.225    373.773     1.840     1.658  67.4
       181   0.06320869    985.045    346.715     0.706     0.642  -1.8
       182     0.355106   1288.775    353.267     1.162     1.106  17.1
       183    0.1276327   1294.232    350.669     1.120     0.933  -5.4
       184     14.28417    997.347    394.448     2.134     2.053  58.5
       185    0.1222829   1486.162    352.278     1.034     0.869  27.3
       186     2.832043   1452.208    365.764     1.467     1.457  78.3
       187    0.3755737    782.281    358.297     1.352     1.224 -45.5
       188    0.8773691    851.831    367.327     2.103     1.323  36.7
       189     0.590109   1459.967    363.040     1.344     1.248  17.0
       190     1.392504    392.740    365.233     1.435     1.397  82.5
       191   0.09745166   1028.324    356.347     0.972     0.851  39.4
       192     16.24863    751.858    440.033     3.427     2.705  50.2
       193     6.269512   1226.026    410.865     1.803     1.618  44.5
       194     3.793833   1017.986    370.711     1.487     1.436 -15.3
       195    0.3830459    864.106    366.313     2.951     1.279 -18.4
       196    0.3020702   1303.847    365.048     1.307     1.192  58.3
       197    0.3982373    982.145    364.132     1.838     1.113  18.5
       198     5.300186    948.282    374.895     1.570     1.522  69.9
       199     0.128445   1035.393    363.010     1.021     0.905 -38.0
       200     9.123273   1625.270    381.522     1.713     1.630  13.4
       201     1.721547    881.625    378.097     1.726     1.670  33.9
       202    0.7557966   1292.505    370.180     1.349     1.280 -18.9
       203     0.325785   1339.087    369.468     1.217     1.132  79.2
       204     1.670007   1274.925    423.235     3.529     2.160 -66.5
       205    0.2038968   1090.230    372.315     1.440     1.083  55.2
       206     62.82844    320.609    455.079    46.781    11.900  -7.2
       207     1071.846     68.691    658.655   309.744    33.832  87.7
       208      881.619    185.150    343.281   222.689    31.041 -87.2
       209     550.0986     10.192   1089.054   149.034    11.264  88.8
       210     2.832885    430.043    395.023     3.175     2.712 -51.3
       211    0.6575197    923.698    378.586     1.475     1.325  76.9
       212    0.1820789   1414.074    368.576     1.068     0.940  16.8
       213     1.291709    593.087    453.284     6.083     3.555 -21.8
       214     3.850258    426.248    412.091     4.653     2.995  17.2
       215    0.1664417   1286.444    371.440     1.017     0.925 -35.4
       216     2.422734   1668.910    383.497     1.307     1.223  49.3
       217    0.1280588   1376.703    374.062     0.984     0.822  33.0
       218    0.2548681   1442.129    374.564     1.113     0.954  -7.9
       219     12.83499   1038.909    419.433     2.577     1.845  38.2
       220     33.26437    527.580    430.028     2.821     2.374  41.7
       221     13.92717    978.589    489.248     6.815     5.683  64.2
       222     10.20191   1359.410    400.588     1.796     1.680  19.4
       223    0.6381512    696.109    396.038     3.656     1.764 -35.7
       224     4.679218   1568.497    394.194     1.600     1.559  39.2
       225    0.2220558    710.523    387.308     1.874     1.029 -70.6
       226     12.66713    922.953    416.313     2.037     1.893  89.1
       227    0.5879773    981.320    385.903     1.210     1.175 -39.7
       228    0.2460831    934.428    385.611     1.239     1.040  51.1
       229      0.35812    752.265    386.448     1.287     1.244 -54.1
       230     8.426386   1028.528    400.780     1.673     1.554  -5.3
       231    0.6524683   1533.974    390.840     1.400     1.332  38.7
       232     2.161037   1033.673    433.218     3.432     1.893  67.9
       233      9.22794   1027.210    410.627     1.863     1.714  24.6
       234     3.428533   1469.377    400.065     1.509     1.454  51.5
       235     2.685254   1290.381    424.355     2.706     1.987 -86.7
       236    0.4671964   1119.601    397.498     1.561     1.213 -53.0
       237   0.06329368    740.021    385.495     0.759     0.500   0.2
       238     200.6253    523.447   1133.100    35.262    15.178 -44.5
       239    0.3725366   1524.497    396.715     1.348     1.209 -13.2
       240     0.143769   1364.626    391.629     0.989     0.868  42.9
       241   0.08583622   1438.651    388.927     0.816     0.688 -22.5
       242     9.280987   1120.132    415.071     1.743     1.655 -27.3
       243     0.164864   1700.400    395.090     0.996     0.899  86.7
       244    0.7948422    785.491    409.601     1.718     1.295  78.4
       245   0.07831575   1650.903    391.059     0.753     0.632  45.5
       246      17.8264    809.007    454.242     3.386     2.428  46.8
       247    0.4825268    890.102    399.672     1.345     1.195  55.0
       248    0.4063689   1160.741    400.764     1.242     1.179  -1.8
       249    0.7321962    646.627    420.876     5.548     1.197 -26.7
       250    0.4409104   1289.319    414.688     2.294     1.409 -46.9
       251     1.148902    762.979    409.217     1.802     1.524  14.4
       252    0.6568842   1215.944    412.342     1.696     1.566  25.5
       253    0.8136777   1536.920    412.201     1.570     1.502 -30.4
       254     2.985142    490.920    465.190     6.207     4.141 -69.6
       255     10.14374   1381.980    441.326     2.088     1.864  73.6
       256     0.988355   1496.613    408.862     1.378     1.341  11.8
       257      10.2463   1201.252    425.118     1.916     1.785 -21.4
       258    0.4573875   1532.507    413.967     1.559     1.156  75.8
       259   0.08251894    740.314    400.806     0.891     0.676  21.2
       260    0.2604085    660.432    411.405     2.550     1.473   5.8
       261    0.8912459   1570.237    413.582     1.377     1.307  26.7
       262     2.280842   1498.708    424.304     1.704     1.624  56.8
       263    0.2204251   1369.596    410.241     1.234     1.002  -2.2
       264     8.973104   1070.477    442.626     2.961     2.459  -5.1
       265    0.4582267    773.034    414.490     1.272     1.215  47.8
       266    0.1990139    658.109    417.159     1.542     1.137 -55.8
       267     5.327144    722.041    457.857     2.865     2.555  27.5
       268     9.464642   1455.966    437.174     1.764     1.645  78.0
       269    0.2089521   1414.537    418.077     1.134     1.085 -50.7
       270     9.424955    999.639    466.032     4.476     2.352 -14.1
       271     0.106732   1555.592    416.103     0.980     0.852  14.0
       272    0.1563552   1486.440    417.557     1.057     0.935  43.5
       273     4.994374   1340.652    453.018     1.908     1.785  10.0
       274    0.1342383   1329.143    418.521     1.126     0.940  -0.9
       275    0.3123608    754.655    418.546     1.202     1.053  12.3
       276     20.65684    679.961    465.345     2.943     2.687   5.6
       277     1.683616   1007.925    432.091     1.445     1.386  13.5
       278    0.7522141   1018.667    433.432     1.745     1.396 -49.7
       279     0.630045   1611.582    430.979     1.270     1.175  27.6
       280    0.1836276    665.143    423.559     1.026     0.919  17.8
       281     9.286281    254.342    492.144     7.747     3.019 -49.2
       282     0.462306   1498.846    430.177     1.383     1.273 -24.3
       283    0.7651021    718.229    429.739     1.570     0.999 -26.0
       284     1.691597    816.518    450.953     1.967     1.523  85.2
       285     110.4347   1145.206    614.597     9.521     8.174 -27.7
       286    0.2837909   1438.463    432.109     1.308     1.131  -4.9
       287    0.3174891    984.899    433.043     1.149     1.069 -46.1
       288    0.1015472   1603.906    430.392     0.935     0.740 -78.0
       289     3.008198   1137.858    457.634     2.411     1.817   1.8
       290     37.05434   1636.965    497.558     3.781     3.362  81.1
       291    0.9451298   1041.642    455.540     5.082     1.631 -33.0
       292     5.596631    572.109    477.684     7.616     2.712  15.7
       293     8.663834   1326.081    470.505     2.143     1.886  22.2
       294     1.906503    508.036    469.335     2.864     2.423 -70.1
       295     15.29494    266.723    500.848     6.840     3.756 -57.0
       296    0.6534995   1363.276    444.327     1.363     1.334 -42.3
       297     70.69186   1409.425    636.101    26.205    11.007   2.7
       298     3.513214   1410.426    451.316     1.505     1.472  14.1
       299    0.2809722   1119.604    449.900     2.608     1.052  58.3
       300     2.652699   1488.837    452.172     1.808     1.471  11.7
       301    0.4070496   1635.344    444.417     1.306     1.179  46.7
       302    0.2878944   1111.795    447.489     2.106     1.181  65.9
       303     52.27256    448.428    559.221     5.324     4.862 -56.0
       304    0.3056414   1453.580    446.532     1.280     1.241 -89.8
       305    0.2997995   1370.377    447.586     1.384     1.291  20.2
       306    0.2516109   1534.523    445.151     1.256     1.087  -6.7
       307    0.2629011    562.748    445.206     1.178     0.804 -71.1
       308    0.4736533    579.311    451.511     1.634     1.318  44.1
       309     39.45277    872.192    757.357    21.763     8.193 -57.8
       310     1.052245   1512.450    454.809     1.541     1.427  37.1
       311    0.3573566    880.066    444.322     1.245     1.005   1.2
       312     79.48207   1636.262    556.169     6.356     5.258 -70.5
       313     13.45952    692.439    674.074    32.513    15.128   9.8
       314     25.80126    321.451    514.122     2.857     2.512  50.7
       315     30.79629    947.055    490.795     6.198     3.034 -20.0
       316     4.050704   1068.469    467.052     2.703     2.142  -8.5
       317    0.3930491   1293.075    456.058     1.905     1.540 -45.1
       318    0.9224079    698.648    451.352     1.487     1.257 -49.0
       319    0.2637424    501.022    455.900     1.469     1.288  81.0
       320     3.435401    842.311    462.281     1.506     1.471  49.5
       321       15.739    284.452    535.681     4.370     3.150  31.1
       322    0.1239089   1528.250    450.536     0.970     0.958  44.3
       323     1.379044   1492.488    566.290     6.327     2.172  56.9
       324     45.87175    948.637    496.897     5.718     4.046   7.3
       325    0.6751212    520.413    462.064     1.792     1.377 -22.2
       326    0.6338705   1334.923    464.070     1.908     1.551 -17.3
       327    0.8767238   1460.854    464.447     1.414     1.358  76.0
       328    0.3027544   1388.530    459.362     1.357     1.127 -33.4
       329     3.360955   1215.180    470.355     1.504     1.452   7.1
       330    0.2041047    912.878    458.082     1.381     1.168   4.7
       331    0.1256466   1213.423    455.558     1.025     0.921  45.0
       332   0.08838595   1564.851    454.167     0.794     0.670  43.8
       333    0.2240651   1263.770    456.304     0.979     0.854 -71.0
       334      34.9146    485.508    556.046     4.610     3.818 -73.8
       335     68.04829    247.375    733.453    22.460     9.687 -51.4
       336    0.2479258    474.659    464.216     1.229     1.053 -53.3
       337     1.064534    814.951    472.370     1.364     1.330  55.1
       338     10.02099    290.073    504.386     3.011     1.926 -30.6
       339    0.0711922   1255.506    460.985     0.781     0.701   0.9
       340     5.966953    415.019    482.018     1.574     1.493  52.7
       341     1.665261   1469.276    474.796     1.476     1.391  27.0
       342    0.1663952   1357.622    464.617     0.933     0.782  45.5
       343      11.3787   1278.003    489.259     1.653     1.609  41.5
       344     1.385103    655.091    477.457     1.323     1.294  47.1
       345     16.92576   1444.128    564.031     8.160     3.766  63.4
       346    0.3225453   1352.583    471.186     1.221     1.094  33.3
       347    0.3970203   1170.339    474.202     1.251     1.205  23.3
       348     1.457935    792.295    481.151     1.392     1.324  55.7
       349     1.312524    608.555    481.445     1.400     1.323  87.7
       350    0.9654981   1103.603    485.492     1.610     1.442  66.8
       351    0.5482531    301.987    480.029     1.572     1.311 -48.8
       352     12.08547    808.536    505.917     1.947     1.607  39.3
       353    0.5363133   1283.906    484.623     1.444     1.273 -86.6
       354     11.11024    837.688    527.759     2.574     2.125  82.6
       355     4.996844   1030.041    496.234     1.728     1.615   5.6
       356    0.6487712   1367.847    483.053     1.327     1.267  11.9
       357     2.676724    549.732    508.804     3.743     2.455  30.4
       358    0.9869043   1024.522    493.494     1.356     1.338  70.0
       359    0.3206151    320.072    482.360     1.230     1.103  88.6
       360     16.44378   1451.358    549.920     4.110     2.233 -35.7
       361    0.3685797    225.982    482.067     1.879     1.024  12.9
       362     0.130032   1043.416    479.689     0.956     0.933 -22.9
       363    0.5435371   1567.264    488.193     2.018     1.265 -17.5
       364    0.3669884    597.201    486.683     1.193     1.192 -62.3
       365    0.1020904   1169.189    481.154     0.867     0.827 -36.8
       366     111.0293    399.803    648.287    10.285     5.452 -65.1
       367    0.5535721   1536.738    487.709     1.386     1.267 -20.6
       368     22.61029   1239.848    663.098    18.893     9.492 -29.8
       369      7.94979   1000.359    510.393     1.866     1.796  -6.7
       370     27.86143    848.802    538.408     3.009     2.285  43.4
       371     4.172928   1088.707    502.292     1.552     1.505  21.9
       372    0.1925664   1615.960    487.433     0.945     0.910  12.0
       373     41.14708    599.938    602.888     8.057     6.373  -7.1
       374      86.0602    406.797    649.949     9.833     5.240  77.3
       375     1.726889   1463.737    557.456     6.112     3.079 -66.5
       376     1.765031   1565.587    504.929     1.591     1.503  57.0
       377     1.328898   1323.062    503.730     1.493     1.430 -83.9
       378    0.2386659   1481.026    503.222     1.401     1.196 -43.2
       379    0.1591669   1303.405    493.830     1.120     0.940  70.9
       380    0.5927339    829.912    506.476     1.695     1.242 -89.7
       381    0.5038519    346.749    497.261     1.225     1.141   9.7
       382    0.2916441   1551.785    497.684     1.258     1.091  55.5
       383       16.279    306.010    540.520     3.220     2.756  60.4
       384    0.1654729   1465.146    493.588     1.128     0.958  15.6
       385           23    639.060    573.095     3.489     2.973  84.6
       386       5.5027    995.541    521.236     1.907     1.621  56.3
       387     2.806913   1073.057    509.563     1.758     1.646  52.9
       388    0.2245945    722.586    497.235     1.138     1.062  18.9
       389    0.1116107   1344.961    494.323     1.040     0.902   1.8
       390   0.09315621    361.482    492.192     0.857     0.704   1.4
       391     2.054644    580.938    541.328     4.876     3.294 -66.3
       392     2.079736   1125.005    509.084     1.480     1.477  21.9
       393     1.703188    609.489    504.146     2.744     1.502  -1.2
       394    0.7287418   1188.851    503.091     1.583     1.132 -57.3
       395    0.5455748   1514.139    507.396     1.510     1.379  57.9
       396    0.7296114    863.684    505.134     1.311     1.223 -78.2
       397   0.05260194    738.011    495.981     0.616     0.589  89.6
       398     5.061465    445.536    512.728     1.454     1.427  65.2
       399    0.2234949   1494.724    502.875     1.973     1.104   4.6
       400    0.6168235   1491.357    509.157     1.314     1.265 -64.0
       401    0.1194733   1516.539    500.994     1.317     0.824 -36.4
       402   0.09170084    471.971    501.692     0.843     0.736 -86.6
       403    0.1342927    447.856    502.695     0.892     0.813  75.0
       404     4.983495   1318.720    523.158     1.990     1.586 -58.3
       405     1.899312   1571.065    513.409     1.490     1.460  55.4
       406    0.8935936    797.539    511.247     1.384     1.321 -15.2
       407     2.789931    302.611    516.898     1.587     1.438  35.1
       408    0.3270085    889.437    507.169     1.226     1.109  -4.9
       409     4.812271   1623.453    517.116     1.528     1.449  48.2
       410    0.4968268    636.477    508.090     1.276     0.945  57.3
       411     20.74214   1033.121    556.460     2.314     2.198 -66.2
       412     3.980627    725.953    523.934     1.547     1.502  71.6
       413    0.1501296    196.197    506.481     0.915     0.890  42.5
       414     8.174409    818.087    541.205     2.352     1.809 -46.2
       415    0.3865784   1064.598    512.631     1.301     1.282 -25.5
       416     1.224714    634.786    521.997     1.622     1.517  29.0
       417    0.1290667   1017.482    512.020     1.089     0.941  87.6
       418    0.1938623    367.671    511.693     1.103     1.072  83.7
       419     0.340088   1328.782    515.237     1.273     1.214  19.9
       420     7.072331    663.481    529.328     1.603     1.550  30.5
       421    0.1147599   1616.804    511.682     0.811     0.673 -68.0
       422    0.4468807    790.727    515.050     1.202     1.128 -16.0
       423   0.09747681    658.036    509.954     0.793     0.784  53.8
       424    0.2793002   1164.963    513.810     0.941     0.761  88.8
       425    0.1344172   1103.296    513.615     0.941     0.906 -64.3
       426    0.3115939    591.648    513.778     0.979     0.869  17.6
       427    0.0743796   1231.197    511.204     0.782     0.677 -41.8
       428     4.658671    310.506    576.154     6.316     2.719 -71.6
       429     1.656208    930.904    526.142     1.385     1.346 -86.0
       430     0.701825    938.965    524.473     1.681     1.400 -12.7
       431    0.6031028    858.444    521.588     1.256     1.228  55.5
       432    0.2038814    848.901    521.114     1.297     1.116   0.4
       433    0.2040993    738.757    520.581     1.051     1.008   9.2
       434    0.1460704   1244.858    518.098     0.996     0.822   3.2
       435    0.6710691    194.851    521.997     1.154     1.084  35.4
       436     10.85577   1218.081    830.937    38.783     9.292  64.8
       437     67.87819    853.357    659.602     6.900     5.865 -75.0
       438    0.7223763   1152.710    528.636     1.458     1.289 -62.7
       439    0.4847216    544.018    528.529     1.916     0.683  80.2
       440   0.08547777   1275.665    518.121     0.844     0.689  23.7
       441     1.594439   1479.455    556.545     5.861     4.695  69.0
       442    0.1502695   1493.667    521.355     1.040     0.945  46.8
       443    0.6813649    596.637    532.706     3.489     1.443 -16.4
       444     16.52186   1122.116    590.826     3.750     3.270  25.6
       445     7.424921   1286.989    540.649     1.613     1.507  35.4
       446     16.77752   1348.833    561.590     2.523     2.346  10.4
       447    0.4369009   1008.866    531.805     1.226     1.220  -8.0
       448    0.3501058    867.430    533.712     1.271     1.144 -65.5
       449    0.4023607    608.543    536.670     1.623     1.146 -75.1
       450     4.639662    829.179    552.196     1.737     1.640  33.9
       451    0.7404417   1206.562    539.210     1.333     1.303  88.6
       452    0.1781237   1385.976    531.502     1.021     0.930   1.4
       453      13.7282   1382.982    569.397     2.226     2.188  -5.4
       454     2.279125    925.533    551.433     1.737     1.393  76.1
       455      9.95416   1016.403    574.034     2.285     1.861 -48.9
       456    0.1106484   1531.399    533.234     0.959     0.927  -2.7
       457    0.1929453   1357.389    533.520     1.189     0.962  -8.0
       458     2.440895    603.183    549.587     2.149     1.700  -2.4
       459    0.6203828    352.495    539.260     1.251     1.206  42.8
       460     55.80623   1637.336    616.491     3.863     3.379  85.9
       461     1.951484   1568.196    545.625     1.452     1.420  14.5
       462    0.2563129   1350.342    538.911     1.162     1.109   9.6
       463    0.1556445    402.465    538.828     1.087     0.940  72.0
       464     1.633528    961.026    545.139     1.381     1.359  -4.5
       465     15.03514   1394.553    592.699     3.184     2.216 -51.4
       466     23.43247   1513.112    595.613     2.904     2.587 -38.8
       467    0.1069069    740.146    535.907     0.831     0.658  45.6
       468      29.5158   1297.812    662.905     6.228     4.033 -26.6
       469     2.080636   1113.001    549.656     1.405     1.386  36.4
       470     2.839915   1286.353    545.913     1.605     1.327  18.8
       471    0.2570446   1248.509    541.894     1.013     0.925  78.9
       472    0.2348605   1517.621    540.642     1.003     0.886  45.9
       473   0.07192307   1595.062    535.480     0.714     0.499   1.7
       474    0.6282473    582.119    553.992     1.865     1.678  28.8
       475    0.2489095    414.427    544.055     1.083     0.957  89.8
       476     19.99777   1250.672    597.197     3.273     2.952  40.9
       477     8.725223    694.209    582.890     2.103     1.754  48.3
       478    0.3775797   1417.346    547.827     1.292     1.152  19.3
       479     1.810357   1531.586    558.729     1.559     1.523 -87.3
       480   0.07407323   1360.022    543.537     0.801     0.693 -89.1
       481     11.46697    763.728    686.654    14.826     7.484  46.6
       482    0.7571354   1222.818    550.415     1.278     1.224  -0.1
       483     0.101546    779.084    545.692     0.968     0.751 -77.6
       484     0.086413    729.161    542.846     0.812     0.678  45.3
       485    0.6939882   1370.021    554.815     1.346     1.284   5.7
       486    0.4093442    643.528    555.079     1.314     1.240  86.4
       487      14.2262    262.075    976.809    24.173     9.985  32.6
       488    0.1950531   1562.875    552.168     1.235     1.115 -40.0
       489    0.1027341    686.019    549.778     0.881     0.747  89.0
       490     144.1074    800.535    961.993    49.163    15.974 -29.4
       491     26.56475    317.477    644.242     2.605     2.512 -16.5
       492    0.6696248    582.114    560.858     1.758     1.537 -44.1
       493     1.504122    650.127    614.023     2.066     1.593  -1.9
       494    0.2957616    655.316    556.221     1.290     1.210  88.4
       495   0.07256582   1208.189    550.192     0.781     0.681 -44.8
       496    0.3827877   1497.616    561.851     1.709     1.385  77.7
       497    0.8504631    936.652    562.140     1.331     1.219  18.3
       498   0.08545234   1311.177    551.883     0.787     0.670  49.5
       499     6.420906   1592.660    567.731     1.477     1.433  65.7
       500     5.009414   1092.412    595.445     3.805     2.459  27.4
       501     2.893237   1502.888    592.745     2.006     1.676 -77.7
       502     5.961766    264.364    592.393     1.917     1.718  50.5
       503    0.6300972   1372.608    580.646     2.645     1.575 -64.7
       504    0.9565333    959.562    567.425     1.363     1.279  12.3
       505     32.39423    827.465    690.213     6.970     4.303 -62.0
       506    0.9117815   1508.282    568.224     1.383     1.362  88.4
       507     1.941536   1099.128    574.101     1.518     1.456  39.7
       508     59.75493   1348.424    633.923     9.479     3.915  21.9
       509     1.009909   1301.479    570.239     1.333     1.278  20.8
       510    0.1805912    676.280    563.620     1.037     0.952  38.5
       511     0.509211    700.632    572.281     1.307     1.235 -87.7
       512    0.4951424    607.813    571.729     1.599     1.257  56.2
       513     10.67203    702.939    608.353     2.305     2.127   2.8
       514     1.811845    467.383    589.120     3.531     2.109  21.1
       515      6.23599    489.454    589.634     1.820     1.663  40.3
       516      1.34291   1156.430    584.887     1.951     1.744 -48.6
       517    0.5910599    808.756    577.236     1.436     1.383  30.0
       518    0.3507951   1395.787    575.817     1.311     1.291 -36.9
       519     7.415339    531.220    647.823     8.126     4.727 -12.4
       520     1.639701    495.235    583.602     1.542     1.407  30.7
       521     1.292914    290.890    582.175     1.425     1.341  46.3
       522     3.131464   1032.052    593.357     1.798     1.636 -53.5
       523    0.3691393    766.801    578.726     1.312     1.220 -17.3
       524    0.8298679   1516.121    584.269     3.028     1.758  12.9
       525     0.260533    891.986    576.970     1.109     1.080  84.8
       526     10.74027    826.254    637.127     6.545     4.249  14.9
       527     24.45766    253.518    639.643     3.228     2.484  75.0
       528     2.228731   1362.842    587.965     1.453     1.421  46.2
       529    0.5308607    505.913    583.967     1.313     1.243  44.5
       530    0.2207798    961.986    578.697     1.158     1.033  32.8
       531    0.1946908    182.407    581.196     0.944     0.869  59.2
       532    0.9471319    920.262    588.332     1.324     1.250 -51.9
       533    0.2160339    715.369    585.471     1.077     1.071 -75.5
       534     3.381614    277.979    595.030     1.998     1.461  13.1
       535    0.5053408   1419.491    582.362     1.626     0.756 -20.6
       536     3.558755    730.769    687.671     2.652     2.339 -27.1
       537     1.703617    630.980    615.333     2.892     2.373  39.0
       538     3.588963    856.320    599.327     1.581     1.553  61.6
       539    0.6940374    435.554    593.196     1.435     1.355  52.2
       540     24.61075    971.728    661.182    13.441     2.857 -26.2
       541      91.0058    970.057    782.105    16.196    10.774  37.5
       542     24.92094    858.797    660.732     4.706     1.993 -87.1
       543    0.1354893   1539.464    588.763     0.971     0.921 -15.8
       544   0.08195806   1222.355    586.149     0.846     0.684 -21.5
       545     4.017862    260.887    607.521     1.601     1.505  51.2
       546     8.109739   1262.118    631.876     3.106     2.018  19.5
       547      11.9882    589.145   1077.488     2.860     2.330 -16.3
       548     1034.278    751.402   1520.318    59.593    36.243 -87.1
       549     102.7916    484.302   1389.633    45.062    14.985 -12.3
       550      102.756    633.117   1383.034    11.410     4.469  11.3
       551     79.09046    626.178   1367.017     6.037     5.033 -43.7
       552     1404.658    272.014   1360.724    26.654     9.866  10.6
       553     213.7145    359.582   1589.661   123.297     8.923  -0.4
       554     10.48842    564.419   1447.927     1.730     1.721 -57.7
       555    0.6261944   1441.648    870.184     1.205     1.141   5.4
       556     170.0423    951.107    827.454    16.178     7.819   0.7
       557     147.9356    946.920    843.495    10.165     5.242   1.8
       558     32.72127    988.064    849.435     9.284     4.100 -23.7
       559     54.70686    922.119    716.518     7.780     4.166  12.5
       560     70.08559    923.586    709.224     7.220     5.059   9.8
       561     0.867373    381.965    865.854     1.281     1.244 -35.5
       562   0.05432201   1119.957    866.665     0.694     0.645   5.9
       563    0.5109299   1569.513    861.995     1.359     1.291 -71.0
       564    0.1630242    624.931    862.472     0.992     0.918   3.4
       565     1.007819    676.753    857.915     2.960     1.704 -66.2
       566    0.1670041   1462.108    860.204     1.088     0.966 -16.4
       567     10.44565   1176.565    854.448     1.775     1.693  84.4
       568     10.24706    911.034    729.770     4.402     2.994  20.7
       569   0.08228082    303.229    859.956     0.899     0.752  -5.9
       570     0.204073   1111.790    858.182     1.150     1.081 -40.3
       571     0.305378   1476.730    855.362     1.305     1.265  10.9
       572     1.050049   1565.213    853.206     1.750     1.535  39.7
       573    0.3484208   1544.420    854.762     1.278     1.181 -22.4
       574     1.976386   1143.078    852.791     1.611     1.574  79.5
       575     18.09293    346.679    848.614     3.207     2.154 -33.4
       576     1.302178   1059.758    816.116     2.468     1.491  82.1
       577     5.047618   1050.618    824.464     2.612     2.294  78.4
       578     1.744965   1098.463    810.707     3.799     2.168 -73.7
       579     16.68665   1059.792    841.323     2.942     2.826  -5.9
       580     25.81666   1074.475    831.817     4.409     3.397   6.3
       581     17.64817   1111.807    812.939     5.749     2.735  37.7
       582     6.957131   1463.079    849.607     1.651     1.571   4.1
       583    0.3576064    694.251    853.447     1.197     1.092 -19.5
       584   0.07413627   1448.834    852.974     0.826     0.657 -48.3
       585      2.23462    382.516    849.186     1.506     1.438 -29.6
       586    0.1622688    714.695    850.200     1.130     0.919  73.9
       587     0.655686    607.909    849.117     1.347     1.245  65.4
       588     3.694175   1107.389    845.769     2.817     1.681  62.0
       589     10.35938    330.409    935.124     1.672     1.615 -25.7
       590     3.482934   1209.937    812.008     2.022     1.577  10.7
       591     10.40628   1135.907    757.871    15.821    11.018 -32.6
       592     17.90653   1168.490    768.435     3.963     2.423   9.5
       593     41.55659   1169.737    763.319     6.206     3.768  -0.2
       594     5.590052    393.866    845.344     1.608     1.544  -4.6
       595    0.6851757   1152.903    846.725     1.833     0.794  46.3
       596    0.1046164    320.462    848.006     0.980     0.767  -4.1
       597    0.1702135    364.266    846.065     1.325     1.034 -48.9
       598    0.3222231    715.950    843.896     1.266     1.134   7.1
       599     1.079407   1614.019    841.977     1.104     1.042 -52.9
       600    0.3418526    744.191   1032.279     1.233     1.204  61.5
       601    0.5421742   1484.199    841.134     1.777     1.200  -7.0
       602     1.200412   1120.214    903.816     2.559     1.523  63.5
       603    0.1262246   1345.390    839.407     0.993     0.904 -37.3
       604    0.3171214   1599.639    838.474     0.933     0.864 -46.0
       605    0.2297746    728.611    837.048     1.027     0.879  -1.5
       606    0.8017366    864.620    834.902     1.278     1.157 -37.1
       607     1.285724   1426.772    832.979     1.491     1.450 -40.8
       608     2.649071    855.858    829.371     1.490     1.427 -39.1
       609   0.08218484    650.823    832.193     0.784     0.670  45.7
       610    0.1066365    869.553    829.535     0.864     0.829 -15.4
       611    0.6747594    767.856    826.886     3.607     2.080  14.4
       612     1.239317   1347.873    826.741     1.351     1.305   0.6
       613     2.639222    381.685    820.946     7.076     4.794  27.4
       614     4.528276    347.322    823.188     1.986     1.586 -56.6
       615     1.994642    381.396    800.321     4.936     2.314 -22.0
       616     4.092811    375.314    789.000     3.260     2.287  -2.7
       617     7.292185    334.117    797.417     3.829     2.192  15.9
       618     32.82511    349.264    798.297     4.742     4.200  53.1
       619     16.31142    355.480    786.614     2.324     1.852  14.6
       620      1.11651   1203.488    843.866     1.792     1.631 -78.7
       621    0.4009477    285.409    821.992     1.228     1.094  -4.4
       622     170.7504     62.307   1234.425     9.398     5.445  -0.3
       623    0.3158609    321.659    819.085     1.190     1.031 -19.4
       624     11.35159   1308.589    958.097    12.947     6.905 -75.9
       625    0.1272077   1133.446    815.766     0.958     0.904   0.8
       626     0.486836   1139.385    812.076     1.443     1.327  45.6
       627    0.1071781    814.672    811.385     1.012     0.876 -45.6
       628    0.3002687    753.646    811.645     1.066     0.904  45.2
       629    0.3472383   1363.402    808.776     1.410     0.983  29.3
       630    0.2768554    851.750    809.015     1.180     1.137 -19.1
       631     1.111192   1269.867    805.593     1.421     1.395  13.2
       632    0.1540364    393.430    835.404     1.051     0.921 -40.3
       633    0.1361632    751.985    804.980     0.799     0.776 -50.4
       634     1.443913   1251.368    798.631     2.224     1.490 -17.3
       635     0.519722    886.110    847.593     1.141     1.070  45.8
       636     6.338429   1109.278    821.879     2.919     2.210 -14.6
       637    0.3969834    306.882    796.098     1.370     1.266  -6.3
       638    0.1260286    635.538    809.793     0.932     0.888  -1.9
       639    0.1119717    823.247    796.236     0.931     0.850  13.2
       640    0.1269616   1604.506    793.953     0.705     0.691 -14.5
       641    0.6447383    531.869    792.278     1.456     1.390  41.0
       642     1.416749    594.682    790.423     1.312     1.239   8.1
       643    0.4787489    272.247    777.522     2.504     1.195  31.8
       644     0.508071    279.751    774.906     2.717     1.706  54.9
       645   0.09374174   1388.475    790.408     0.884     0.873  87.4
       646    0.5829383   1585.528    767.853     1.205     1.172 -72.1
       647     0.661433   1564.199    788.099     1.683     1.359 -39.6
       648     19.84001   1576.878    777.824     2.360     2.236  -8.3
       649    0.2283176   1166.243    871.418     1.232     1.143  45.3
       650    0.7792187   1242.409    787.397     1.362     1.252   5.5
       651      1.49166   1375.266    785.214     1.397     1.379 -18.6
       652     26.07692   1486.340    788.431     2.664     2.446 -47.6
       653     2.408822   1291.240    784.304     1.542     1.441  18.1
       654     9.216355    960.132    721.509     6.028     3.993 -24.7
       655    0.4639814    697.993    784.818     1.482     1.181 -79.1
       656     17.34906    696.391    773.962     1.852     1.733  -7.4
       657      5.27516    694.992    766.200     1.769     1.539   7.4
       658     2.204848    542.042    770.416     6.776     2.292   1.6
       659     3.646168    520.126    781.937     2.387     1.738  16.3
       660     1.457438    521.303    776.987     2.383     1.858 -86.3
       661     5.068426   1526.003    781.316     1.739     1.653 -28.3
       662    0.5914077    288.154    786.793     4.855     1.676  53.8
       663    0.2916166   1128.674    778.887     1.338     1.110  17.2
       664    0.5358786   1545.878    777.965     1.689     1.014  45.6
       665    0.2089101    800.099    777.982     1.127     1.106 -27.1
       666    0.4788951    778.784    773.747     2.930     1.488 -67.0
       667    0.3104436   1104.615    776.516     1.522     1.090  17.8
       668    0.6905273    436.034    774.226     8.424     1.055  58.0
       669     9.548171    419.180    746.797     1.893     1.664  54.3
       670     0.405481    637.744    773.904     1.316     1.274 -69.9
       671    0.3066158   1613.399    772.181     1.029     0.972 -79.2
       672     14.67949   1169.936    785.105     8.209     5.860  22.4
       673     10.45594   1430.803    785.345     1.725     1.603   3.4
       674     3.726416    761.355    759.712     3.549     2.621  77.6
       675    0.7547987    627.354    767.869     1.429     1.372 -17.7
       676   0.09112848   1322.781    767.041     0.875     0.744   2.1
       677     2.906253   1027.090    759.791     3.584     2.119 -25.2
       678    0.2262517    408.369    765.842     1.264     1.143  68.9
       679     32.68773    992.131    827.974     5.150     2.695 -81.2
       680    0.1001969    809.374    765.918     0.949     0.733 -15.0
       681     0.978157    779.989    761.765     4.145     2.244   1.9
       682     1.613159    784.634    746.357     4.961     2.703 -82.5
       683    0.6388065    419.439    761.901     1.532     1.341  73.4
       684    0.6306204    336.754    762.661     1.333     1.223  38.1
       685    0.3904411   1074.775    762.726     1.340     1.254 -53.2
       686     2.849063    273.781    760.708     1.630     1.409  30.5
       687    0.5772251   1032.526    757.949     1.385     1.239  77.4
       688      10.8572   1527.411    753.737     2.093     1.816 -60.0
       689    0.9990415   1519.636    740.398     3.106     1.674  86.9
       690    0.3305546    635.092    760.905     1.270     1.161 -14.3
       691    0.2321036    366.530    761.093     1.136     0.953  71.9
       692    0.2626309   1461.688    757.879     1.161     1.095  36.2
       693     1.059816   1356.094    757.310     1.288     1.233  23.0
       694     0.125877   1086.037    758.258     0.897     0.753 -90.0
       695     0.908668    187.960    757.485     1.225     1.139 -17.2
       696     11.08424    533.018    851.331     5.063     4.584 -11.0
       697    0.3588561    360.262    756.404     1.274     1.260 -89.6
       698   0.08722352    345.054    756.040     0.791     0.765  40.2
       699      1.71703   1062.715    752.125     2.734     1.561 -32.4
       700     42.68154    975.028    692.612     8.941     4.739  -2.3
       701     1.355305    322.902    752.076     1.375     1.266  50.3
       702     3.543939    566.050    734.536     3.867     3.111  32.7
       703     6.087327    568.560    749.288     1.844     1.576 -37.6
       704     1.709133    561.575    748.788     1.619     1.414 -81.5
       705     2.992805    565.856    722.844     1.453     1.384  -1.4
       706     28.59246    560.726    717.293     3.208     2.958 -26.0
       707     8.282802   1090.156    746.604     2.306     1.701  19.7
       708    0.3518128    733.338    746.238     1.346     1.230 -40.7
       709    0.5603433   1614.634    744.775     1.142     1.098 -40.3
       710     0.625702   1256.836    744.581     1.308     1.235   8.2
       711     2.004773   1288.942    737.581     2.487     1.985  48.5
       712     1.255718   1288.037    729.337     2.269     1.907  11.1
       713     11.83604   1297.526    724.860     3.930     2.893 -44.8
       714     1.748973    498.425    742.616     2.010     1.470   6.5
       715     3.539604    497.499    731.991     1.594     1.477  50.2
       716   0.08702028   1365.698    743.879     0.842     0.685 -23.3
       717    0.3727608    710.497    742.577     1.288     1.259  -5.7
       718    0.1181559    539.889    743.405     0.981     0.849  80.1
       719      0.10438    377.354    742.889     0.906     0.691  20.4
       720    0.1279496   1115.625    741.628     0.989     0.860  41.5
       721     1.122177    768.470    737.796     1.603     1.475 -69.0
       722    0.1756872    295.412    740.244     1.215     1.042  62.1
       723     2.763575   1620.025    737.639     1.412     1.368 -14.1
       724     9.694903   1397.695    736.433     1.541     1.513  25.7
       725    0.7569697   1337.429    736.219     1.339     1.280  83.1
       726     1.736224    609.530    731.975     2.362     1.508  38.3
       727     5.079135    599.870    725.453     1.584     1.510  20.3
       728    0.7372398   1317.325    732.708     1.457     1.345  64.3
       729    0.1207038   1200.843    731.516     1.782     0.784  47.4
       730     3.506396    682.727    723.462     3.042     2.453 -64.8
       731    0.1567825   1575.564    731.369     0.924     0.906 -36.6
       732    0.3184666   1498.360    730.133     1.290     1.119  -6.3
       733    0.2572596   1043.385    728.761     1.211     1.073 -26.9
       734    0.7081841   1024.576    728.360     1.445     1.252  35.7
       735    0.1919211   1020.505    724.035     1.142     1.043  71.9
       736    0.2549857   1243.920    726.193     2.274     1.044 -42.1
       737    0.5956247   1538.424    724.748     1.362     1.343   1.1
       738    0.4284183    517.475    725.569     1.353     1.259  20.4
       739    0.3793911   1580.784    724.575     1.159     1.105  16.0
       740     19.55555    312.222    718.910     2.744     2.181 -84.2
       741     2.627685   1559.550    721.258     1.506     1.467 -12.3
       742     2.344662   1249.663    708.938     4.893     4.416  55.9
       743     1.183373   1265.496    721.241     1.642     1.429 -64.7
       744     1.791837   1260.061    719.430     2.288     1.666 -47.7
       745    0.6855011    699.642    722.947     1.416     0.903  37.8
       746     1.376384    355.899    715.316     4.124     3.012  37.4
       747    0.4535027    874.356    721.444     1.343     1.265 -43.0
       748     3.976337    847.373    714.694     1.837     1.491  67.8
       749    0.1326194   1136.045    719.892     1.130     0.931  77.3
       750     1.169997    620.616    716.321     1.437     1.392  18.5
       751     7.383672    407.780    713.736    13.975     6.212 -66.6
       752     1.552153    897.220    981.208     2.188     1.892 -81.7
       753    0.4791937    930.991    980.529     1.554     0.953  17.4
       754     4.409334    603.734   1148.169     1.737     1.502  -5.2
       755      18.1458    411.053    637.244     4.857     2.771  14.1
       756     1.653614    610.986   1494.271     1.438     1.325  11.3
       757     4.639089   1068.423    964.002     2.884     1.900  28.6
       758    0.3759005   1571.986    715.136     1.192     1.179  35.6
       759    0.5313758   1394.234    715.829     1.205     1.155  29.5
       760    0.1936162   1217.482    717.029     1.063     0.790  -2.6
       761     3.873576    481.366    654.608     4.296     3.337  32.1
       762      5.48819    520.292    701.975     3.690     3.039 -37.8
       763     5.161316    512.512    689.691     4.014     2.779 -49.7
       764     2.611444    473.692    671.202     3.786     2.415 -38.5
       765     1.492802    470.302    662.348     2.565     2.040  -5.9
       766     31.33788    495.983    680.616     3.899     3.383  37.2
       767     19.15375   1165.108    708.002     2.480     2.138 -23.2
       768     4.652562   1156.799    698.978     2.726     1.538  16.8
       769     4.234262    672.984    687.995     9.747     5.143  89.7
       770    0.4144319    170.732    908.957     1.160     1.137 -11.9
       771     8.963145    722.849    690.556     1.972     1.821  68.2
       772      1.11404    305.662    873.220     1.457     1.317 -33.5
       773     14.79956    447.050    906.747    13.908     5.036 -88.2
       774     0.175313    798.607    712.408     1.040     0.947  43.4
       775      1.53937   1496.577    709.450     1.382     1.335  89.2
       776    0.2740745   1529.092    707.390     1.241     1.149  78.4
       777     1.485418   1211.297    705.002     1.965     1.671  42.2
       778     0.462504   1075.758    705.797     1.233     1.196 -50.2
       779    0.1873542    425.115    715.268     1.090     1.010  17.2
       780     5.121896   1132.354    702.494     1.669     1.497  60.9
       781    0.8365263   1175.040    908.918     1.335     1.279  61.6
       782     3.827871    820.972    627.814     2.699     1.760 -19.2
       783     1.257408    323.886   1014.815     2.037     1.553   5.4
       784    0.7513253   1024.422    869.672     1.257     1.164  32.8
       785   0.08607034    687.189    943.049     0.803     0.660 -51.2
       786     18.19077   1469.916    697.013     2.394     1.900 -37.4
       787    0.1695664   1619.125    702.398     0.914     0.851 -84.0
       788    0.8070555   1299.544    700.098     2.106     0.737 -29.3
       789    0.7102016    539.871    698.439     1.463     1.371  78.1
       790     4.644817    858.167    696.344     1.541     1.530 -77.4
       791    0.1912294    374.402    699.678     0.954     0.838  18.8
       792     0.336166    646.891    694.598     1.187     1.000  14.0
       793    0.1248867    361.448    698.502     1.052     0.847 -44.8
       794    0.1733349    507.539    752.557     0.921     0.880  -2.4
       795      1.32891   1417.113    692.823     1.355     1.342   1.3
       796   0.08109555    613.360    699.087     0.871     0.689 -21.0
       797    0.5248538    420.546    692.769     1.321     1.258  23.9
       798    0.1102664    314.565    693.007     0.957     0.770   1.6
       799    0.0787809   1570.488    691.941     0.781     0.698  -1.0
       800    0.2504408    291.987    690.323     1.267     1.167  49.8
       801    0.6844794   1207.911    656.636     2.122     1.664 -74.6
       802    0.1219137    513.277   1490.222     0.827     0.713 -43.0
       803     5.093675   1264.084    625.203     3.258     2.027  16.6
       804    0.2222226    584.529    690.165     1.073     1.067  16.8
       805    0.1664917    371.450    689.246     0.984     0.945  15.2
       806    0.1442356    305.555    688.174     0.952     0.879  -2.0
       807     1.108206   1014.690    685.304     1.496     1.387  39.3
       808     61.58455   1530.629   1017.915    34.651    12.625   0.1
       809     3.017991   1491.155    919.176     1.487     1.445 -55.9
       810    0.5004016   1040.093    918.654     1.286     1.209  15.4
       811     13.28628   1352.677    660.867     4.970     4.231  20.1
       812     77.74054   1345.666    639.790     5.749     3.679   4.8
       813    0.7970871   1531.031    894.938     1.048     1.026 -20.1
       814    0.9186535   1185.850    684.936     1.381     1.282  27.2
       815     5.939465   1388.805    682.592     1.505     1.492  15.7
       816    0.2721241   1284.191    684.607     1.416     1.081  -2.1
       817    0.4371523   1506.727    683.762     1.179     1.173  42.1
       818     5.114187    504.168    666.721     4.471     3.213   8.3
       819     21.18936    214.650    680.045     1.785     1.579  54.4
       820    0.1477958   1133.942    683.338     1.038     0.921  26.1
       821    0.1171585   1133.002    679.263     1.242     0.781 -79.6
       822    0.4517764    428.537    867.551     1.434     1.275   3.5
       823     3.933236   1562.024    677.985     1.523     1.481  37.9
       824    0.1265446    307.032    680.830     0.842     0.747  84.7
       825    0.2716792    527.487   1374.665     1.282     1.197 -67.8
       826     1.386496    235.751    674.529     1.439     1.310  53.7
       827     0.226607   1400.876    675.189     1.100     1.024  29.5
       828   0.09363546    908.116    673.259     0.991     0.735  79.3
       829    0.1304219    303.246    673.537     0.930     0.900  86.2
       830    0.2562642    544.429    671.963     1.080     0.918  64.5
       831    0.2959056    548.847    670.167     1.437     0.914 -33.8
       832     4.291946    878.479    692.127    10.119     3.169  70.1
       833     1.126502   1425.636    669.015     1.352     1.329  37.6
       834    0.2731682   1074.631    670.279     1.203     1.068 -17.6
       835     1.268829    801.533    668.535     1.438     1.408  58.5
       836    0.2551006    168.809    672.077     1.154     1.109  19.5
       837   0.08110961    589.492    669.060     0.782     0.704   1.1
       838     1.358228   1026.426    665.046     1.671     1.416  23.5
       839     16.60811    996.971    660.554     2.509     2.160 -34.2
       840    0.1476783   1181.970    666.445     1.046     0.931  -0.4
       841    0.7430164   1060.305    711.794     1.454     1.356  38.3
       842   0.08124884    299.914    666.492     0.765     0.688  88.7
       843   0.09235994    605.346    665.620     0.903     0.794  70.7
       844     2.683059    657.794    656.014     2.141     1.702  48.7
       845    0.1482891   1589.857    662.890     0.823     0.803 -27.9
       846    0.1586206    923.946    662.663     1.151     0.963   4.4
       847   0.06948441    903.016    662.506     0.776     0.499   2.8
       848    0.6392532   1601.255    659.175     1.127     1.093  52.4
       849     2.507535   1388.417    656.351     1.678     1.611  30.2
       850    0.1166575   1549.492    880.942     0.700     0.687  -2.4
       851    0.1802634    170.767    891.394     1.711     0.904  20.6
       852     2.595695    524.093    633.430     4.510     2.716 -25.8
       853     1.868311    289.592    656.388     1.418     1.344  48.5
       854    0.1359755    233.257    656.684     1.163     0.996  77.9
       855    0.4980471    228.132    651.333     1.519     1.374  46.6
       856     7.528707    641.031    650.437     1.586     1.552  64.1
       857    0.9757311    215.431   1229.165     1.538     1.367 -53.3
       858     5.065913    836.306    871.926     9.372     6.149   4.4
       859     1.792067   1138.323   1054.750     1.271     1.232  48.7
       860     68.16248    826.501   1475.226    22.261    14.216  87.6
       861     2.647313   1052.362    648.102     1.825     1.419 -25.1
       862     22.50454   1057.698    642.835     3.100     2.934 -33.5
       863    0.3225216    374.659    905.187     1.100     1.045 -30.1
       864    0.2151501   1033.001    647.260     1.069     1.038 -30.9
       865    0.1371358   1009.420    647.113     1.028     0.925  62.1
       866    0.2458163    690.585    645.999     1.394     1.126   0.2
       867    0.1506088    684.222    645.607     1.150     0.948  14.6
       868     7.583278    595.793    643.382     1.766     1.551  85.0
       869    0.8244166   1309.321    642.502     2.096     1.260 -89.3
       870   0.07151522    925.521    644.526     0.877     0.870  36.3
       871   0.08998197    911.534    644.945     0.727     0.684   1.3
       872    0.3558293    756.217    639.818     1.329     1.232  -9.9
       873    0.7013031    909.173    638.388     1.287     1.253 -40.6
       874    0.1393497   1606.951    637.451     0.927     0.752 -85.1
       875     1.716264    495.390    634.203     1.551     1.469  53.8
       876    0.1277459    457.252    652.184     0.948     0.841  18.9
       877    0.1030345    807.448    635.408     0.898     0.864 -73.9
       878     1.300333    571.980    633.290     1.434     1.381  80.2
       879    0.6178104    471.979    633.192     1.479     1.366  82.9
       880     153.0573     66.688   1223.051    10.296     5.114  15.5
       881   0.07040564   1544.494    633.023     0.788     0.698   0.0
       882    0.3164856    883.234    630.864     1.170     1.159  85.8
       883    0.1515276    973.298    629.881     1.084     0.989  60.6
       884    0.7848681    792.927    629.071     1.489     1.380  75.0
       885     3.735087    582.819    627.036     1.721     1.579  70.8
       886     223.9803     48.596   1337.707    29.976    15.662 -87.2
       887     11.08974   1487.226    624.878     1.731     1.609  42.5
       888     3.579643    695.699    625.884     1.644     1.630  28.1
       889    0.2235749    343.946    984.083     1.116     0.960 -20.8
       890    0.6981285    655.512    626.511     1.537     1.287 -18.7
       891    0.3055377    553.446    626.494     3.034     1.134  -6.9
       892    0.4348889    555.444    620.585     1.871     1.522 -23.5
       893    0.1775592    636.934    625.641     1.438     1.044  21.7
       894    0.2640284   1554.978    624.242     1.191     1.093 -72.4
       895     1.406602    300.656    870.119     1.760     1.589   0.9
       896     2.745823    721.612    676.774     2.705     2.064  -1.5
       897     1.113018    958.833    622.532     1.479     1.424  27.9
       898    0.1842552   1103.978    622.038     1.170     0.724 -75.7
       899     1.218228    714.024    620.256     1.771     1.483  37.3
       900     2.201538    798.128    877.677     8.351     3.639  -7.8
       901    0.8131459   1525.074    617.447     1.372     1.299 -10.3
       902    0.1948812    891.842    620.514     1.102     1.085 -59.3
       903     11.47383    273.748    630.803     1.714     1.612  26.9
       904    0.5838704   1292.696    617.120     1.281     1.257  71.7
       905     8.275271    513.999    614.564     1.599     1.549  27.7
       906     3.277045    872.124    915.781     7.784     4.879 -60.4
       907    0.6984734    245.337    614.212     1.518     1.400 -65.9
       908    0.3568407    880.207    614.187     1.344     1.110 -83.8
       909    0.1750509    883.830    608.802     1.234     1.049 -25.6
       910    0.9144875    807.103    613.488     1.500     1.409   2.0
       911     3.241264    984.733    610.941     1.683     1.558  42.9
       912    0.4696175    664.235    613.853     1.245     1.183  36.7
       913     2.008524    549.103    608.804     1.641     1.527  62.9
       914     0.120733    232.110    914.165     1.156     0.757 -61.0
       915    0.2528154   1223.528    605.756     1.203     1.036 -16.3
       916    0.1047278    440.686    611.417     0.946     0.870 -46.7
       917     2.319999   1217.124    609.878     1.421     1.376  -8.9
       918    0.3183466    912.169    867.972     1.078     1.037   1.6
       919    0.4420595   1462.795    608.516     1.191     1.008   1.4
       920    0.4850996    274.647    607.919     1.192     1.151  43.4
       921    0.2486014   1035.376    607.074     1.142     0.889  79.5
       922    0.1955932    895.501    606.516     1.324     0.976  81.7
       923      0.59707    737.438    610.532     1.375     1.269  21.6
       924    0.1197568   1071.704    606.301     0.925     0.845 -48.2
       925     1.216019    421.418    880.724     1.491     1.435  43.8
       926    0.2109864    928.332    920.684     1.078     1.024  35.7
       927     2.396382    655.586    925.262     1.670     1.536  65.6
       928     0.366417    922.645    873.036     1.082     1.067 -14.6
       929     0.134054   1000.502    983.475     0.902     0.832  20.6
       930     1.545649    223.730   1474.266     1.219     1.139  40.3
       931     0.183857    466.216    600.688     1.176     0.940  13.0
       932     0.217365   1229.468    599.254     1.111     1.058 -20.4
       933     1.659873    399.875    886.074     1.479     1.385 -18.4
       934    0.3211482    690.172    596.363     1.217     1.157  19.8
       935    0.2633967    962.365    875.559     1.039     0.910  15.9
       936    0.7556964    376.200   1437.092     1.360     1.284  54.4
       937   0.08893701    843.065    596.991     0.782     0.765 -62.3
       938      22.9617    511.339   1370.285     2.863     2.296  -3.8
       939    0.2536533    776.926    617.011     1.288     0.718 -15.3
       940     4.718737   1484.798    879.619     1.426     1.400 -38.3
       941     2.692273    769.125    864.724     4.882     3.493   9.0
       942     5.181335    343.670   1002.174     1.508     1.472  61.2
       943    0.2047758    780.049   1042.654     1.350     0.750  85.0
       944    0.1780739   1489.273    910.282     0.897     0.835  37.2
       945   0.09226098    299.484    951.610     0.879     0.854  50.4
       946    0.3605092   1498.938    880.112     1.048     1.018 -67.6
       947     1.218885    235.888    908.430     1.461     1.368 -50.7
       948    0.4697177    197.233    874.964     2.800     1.312 -31.2
       949     0.633821    233.519    869.194     1.381     1.270 -30.3
       950    0.4880465   1191.607    875.953     1.295     1.203  38.0
       951     1.688851    228.428    865.893     1.496     1.447 -23.6
       952   0.07880864   1148.356    880.889     0.862     0.697  21.2
       953     10.50749    790.352    854.147    18.926    16.487 -57.4
       954     17.43223   1647.535    653.164     3.372     2.210   4.8
       955     10.30831   1383.398    924.598     2.868     2.452  -1.3
       956     11.51033    849.583    871.669     2.590     1.779 -71.3
       957    0.6452276    957.403    872.074     1.188     1.039  18.7
       958    0.4993094   1033.594    982.001     1.646     0.857   9.3
       959      187.356   1316.862    905.242    23.735    13.142   9.0
       960     2.717025    621.764   1489.525     5.827     4.398   3.2
       961   0.09257427   1388.086    878.938     0.744     0.737  -7.9
       962    0.1044872   1181.991    652.553     0.962     0.764  87.8
       963      1.33728   1407.895    877.564     1.313     1.235 -12.5
       964    0.1796963    585.441    885.870     1.077     0.927  67.4
       965     1.362941    968.099   1144.423     1.265     1.235  41.7
       966     2.041984   1159.988   1019.776     1.164     1.131  54.4
       967     27.49682    819.830    840.267     4.926     2.879 -81.4
       968    0.3834062    981.353    878.347     3.475     0.867  53.2
       969     6.324333    162.264   1481.732     2.035     1.799  36.4
       970     22.46492    813.169    839.822     5.761     2.218  75.4
       971    0.1023935   1180.832    897.012     0.855     0.746  -2.3
       972     10.40403   1102.403    888.385     1.760     1.434  18.9
       973      28.6409    262.331    902.520     2.145     2.088  57.2
       974    0.1525302   1169.957    896.190     0.760     0.743   9.9
       975    0.2195285   1120.379   1015.925     1.142     1.086 -78.7
       976     16.58099    294.195   1001.530    12.760    10.312 -73.4
       977    0.3222994   1126.076    934.496     1.221     1.009  52.6
       978     14.64301   1648.748    698.284     2.144     2.013 -48.9
       979     3.531373   1066.895    897.470     1.396     1.314  88.3
       980     3.206983    217.670    955.766     5.063     4.059 -34.9
       981    0.2133951   1046.167    626.252     1.848     0.546  47.9
       982    0.4757418    528.390    938.193     1.796     1.140  59.7
       983     0.565968    431.652    974.496     2.534     1.512 -71.4
       984     7.432556   1527.205    911.683     1.461     1.421 -46.7
       985    0.6638942    332.803   1025.340     1.330     1.272 -43.3
       986   0.07596242   1031.980    912.921     0.781     0.758 -26.4
       987     11.86493    543.726    898.500     1.913     1.764 -26.6
       988     152.2779    490.269    851.224    11.559     7.390   8.0
       989     135.8897    492.041    842.657    18.259     5.178  -4.3
       990     2.184638   1006.630    912.932     4.897     1.348  53.7
       991     1.115206    686.044   1474.511     1.317     1.197  19.5
       992    0.4817085    313.160   1490.292     1.074     1.029  56.0
       993     2.046485    548.216   1481.108     1.232     1.205 -77.3
       994    0.3569784    734.902   1048.576     1.304     1.221  45.6
       995     2.959371   1311.877    865.812     1.733     1.661  51.0
       996    0.2642455    833.385    907.849     1.246     1.059  33.5
       997     5.189765    641.673    877.856     3.596     2.777 -33.3
       998     17.26013    693.511    900.901     3.198     2.350  76.3
       999     8.635194   1626.362    679.115     1.834     1.650 -12.0
      1000     13.68276    422.077    799.392    16.583    13.750  36.3
      1001      7.19701    357.941    917.104     1.455     1.406 -18.5
      1002   0.07944984   1381.796    902.384     0.671     0.462 -18.2
      1003     37.48299    177.633   1001.072    31.138     2.774  53.9
      1004     1.231077    367.515    912.121     1.286     1.243 -45.9
      1005     3.513115    237.368    961.891     4.951     2.962  59.7
      1006    0.1131766    423.664    938.390     0.921     0.840 -46.7
      1007    0.1940133    155.823    924.607     1.028     0.915 -16.1
      1008     43.39755    514.336    815.299     9.567     6.131   2.6
      1009     0.175699   1142.504    914.537     0.906     0.897  65.6
      1010      2.25412    772.482    909.780     1.492     1.411  62.4
      1011     3.192362    954.718    914.568     1.331     1.296  58.4
      1012     26.10451    469.427    840.931    13.620     5.686  88.6
      1013   0.06718814    947.018    918.522     0.742     0.499   0.2
      1014    0.2030335    144.920    930.554     0.980     0.902 -10.2
      1015     6.279869    629.976    890.961     2.896     2.318   8.9
      1016     58.28552    662.715    907.091     6.519     4.963 -49.7
      1017      22.0215    659.363    884.787     4.856     3.385 -58.0
      1018    0.1494781    765.741    950.907     1.142     1.007 -66.4
      1019    0.8156433   1011.713    902.212     1.474     1.302  87.7
      1020     5.588563    401.506    916.964     1.587     1.511 -50.5
      1021    0.3408687   1558.244    903.690     0.923     0.891 -14.4
      1022    0.2293877   1391.589    916.151     0.916     0.891  -0.2
      1023     4.050581   1201.749    931.325     1.374     1.332  62.0
      1024     8.596468   1360.201    889.933     1.983     1.728   6.8
      1025     1.258818    637.068    910.779     3.154     2.028 -80.2
      1026     5.717062    867.733   1057.300     1.484     1.407  49.0
      1027     11.78624    630.566    929.171     1.720     1.526 -32.5
      1028    0.5561459    494.214    953.122     2.842     1.694  56.1
      1029      20.9298   1386.330    836.053    18.643    10.882 -54.6
      1030    0.2866559    604.196    941.941     2.939     0.907 -46.9
      1031     2.330303     46.159   1419.720     1.234     1.160  58.9
      1032    0.2320482    473.255   1296.970     1.421     1.021 -54.9
      1033     42.71166   1095.343   1088.966     3.079     2.470  52.7
      1034    0.6718714   1132.675   1019.026     1.149     1.114  24.0
      1035     1.185951    142.503   1030.951     1.295     1.276 -73.1
      1036    0.4150182    613.738    937.154     2.884     1.523  24.4
      1037   0.08621917   1121.351    966.851     0.869     0.682  22.8
      1038    0.2286637    253.396    950.170     1.319     1.115  18.3
      1039   0.08310487   1025.229    947.029     0.885     0.738  -2.2
      1040      1.82431    662.601   1506.085     5.226     2.582   8.8
      1041    0.3962374    214.412    980.503     1.287     1.271 -11.9
      1042    0.3402104   1095.927    984.110     1.348     0.653  19.0
      1043    0.2295812    911.329    960.283     1.138     1.072  57.2
      1044    0.1385615    470.471    945.726     0.906     0.862 -14.5
      1045     91.80149    588.091   1303.563    16.899    10.622  65.1
      1046    0.1015547    692.133    939.483     0.847     0.725 -87.9
      1047    0.3166049    947.808    943.551     1.262     1.000  20.5
      1048    0.3061593    321.703    929.040     1.407     1.295  20.8
      1049    0.2651547    798.026   1031.201     1.334     1.087  62.3
      1050     11.22892    248.229    938.992     2.440     1.873 -28.6
      1051    0.4015521    334.689    942.829     1.256     1.094  32.1
      1052     0.126975    255.745   1033.899     1.115     0.842  61.2
      1053     10.90524   1036.426    946.603     1.828     1.727  54.5
      1054     3.568851    613.760    962.756     1.568     1.491  51.4
      1055    0.1619816    997.011    981.272     1.062     0.821  26.9
      1056    0.4596018    198.467    953.394     1.492     1.312 -62.1
      1057    0.1981894    729.980    963.811     1.073     0.998  27.0
      1058    0.1326067    297.179    970.752     1.176     0.914 -74.5
      1059    0.4946583    624.339    952.277     2.150     1.331   1.2
      1060    0.2998542    589.611    952.408     1.291     1.083  47.0
      1061    0.9530254    116.484    960.049     1.191     1.147 -56.6
      1062    0.4258458    847.844    977.862     1.339     1.252  82.3
      1063     20.37262   1003.621    938.749     2.260     1.899  45.1
      1064     1.646888    547.226    971.917     4.084     2.843  15.7
      1065    0.1869639    919.488    991.245     1.683     0.964 -37.1
      1066    0.8999148   1005.604    958.671     1.216     1.188 -23.8
      1067    0.6050406    262.396    953.910     1.345     1.280  -8.6
      1068     3.016728    877.270    951.796    11.474     3.400 -52.8
      1069      6.63726    680.147   1479.021     2.772     1.581  -4.7
      1070     9.038142    988.748    928.176    11.243     5.111  -4.3
      1071     13.52107   1631.195    875.417     5.057     2.271 -75.7
      1072    0.7553517    291.979   1479.764     1.074     1.036  38.7
      1073      0.14872   1028.514    975.043     1.160     0.941  70.3
      1074    0.5053459    913.485    966.959     1.251     1.218  75.6
      1075     3.978684    690.733    951.155     1.438     1.364  67.3
      1076     3.279585    664.272   1467.220     6.088     2.649 -32.9
      1077     2.651332    897.010    940.553     4.566     2.752 -89.9
      1078     1.059637    885.238    935.637     2.755     2.051 -23.2
      1079     7.825581    909.401    893.762    14.064     5.745 -65.9
      1080     12.79333    667.022   1495.224    15.350     6.948   4.7
      1081     51.25949   1653.413    950.217    92.203    13.079   3.5
      1082     4.791306    882.837    927.429     2.954     2.238 -35.1
      1083     7.134038    609.568    980.498     1.723     1.599 -44.5
      1084    0.8485504   1027.044    966.648     1.440     1.323 -16.2
      1085      10.2301   1428.567    925.349     3.153     2.713 -52.9
      1086    0.3253316    760.112    966.988     1.123     1.094  77.5
      1087    0.9123777    890.260    967.386     1.874     1.354  19.2
      1088     126.5613    285.269   1234.704    22.928    10.825 -10.4
      1089     14.31219    562.815    943.720    31.412    19.611 -43.9
      1090     238.6283   1609.118    940.911    26.869    21.280 -24.9
      1091     3.302166   1013.201    975.753     1.503     1.405  71.7
      1092     18.34119   1588.269    925.003     1.942     1.904 -49.8
      1093    0.1650215    193.752    971.731     1.012     0.991 -64.7
      1094     3.158314   1017.766    972.466     1.417     1.264  58.3
      1095     11.17411   1438.362    934.450    12.007     3.286  -1.2
      1096     4.158342    441.051    959.004     1.472     1.426 -61.6
      1097     5.086037   1101.358    912.817    13.767     6.581 -34.9
      1098    0.1391207    547.214   1473.573     0.788     0.690  87.0
      1099    0.4317577    991.027    993.324     1.201     1.098  82.8
      1100    0.5935893    438.262    977.179     1.404     1.327  33.3
      1101    0.7740301   1064.078    981.040     3.550     1.447  60.9
      1102     7.687269   1069.158    953.282     4.459     3.139 -42.8
      1103    0.1411859    482.756    984.766     1.063     0.921   8.5
      1104    0.3226235    205.553   1478.756     1.078     0.907  36.9
      1105      5.53937   1060.530    929.615     6.408     4.488  12.0
      1106    0.7066432    514.256    998.346     1.514     1.422   0.6
      1107    0.2850034   1039.023    990.519     1.358     0.739  89.9
      1108     4.602122    443.326   1474.973     1.396     1.361  35.3
      1109    0.9059136   1080.036    993.321     1.824     1.130  31.0
      1110     1.242724    539.757    978.018     1.724     1.538 -25.6
      1111     0.802756    236.810   1052.948     1.493     1.372  -7.3
      1112   0.08675128    480.352   1487.140     0.834     0.679 -24.2
      1113     7.848318   1057.104    968.481     2.268     1.852  65.9
      1114    0.3058473    201.671   1475.962     0.958     0.762  39.0
      1115    0.6609148    798.324   1089.350     1.688     1.297  33.5
      1116    0.2433584    160.186   1391.084     1.490     0.783 -75.0
      1117    0.3032828   1176.841   1097.811     1.066     0.788 -89.2
      1118    0.2081632    190.722   1071.496     1.086     1.013 -11.1
      1119     5.172562    903.412   1017.925     2.288     1.619 -71.0
      1120     37.61468    527.730   1232.026     6.301     5.111  76.7
      1121     8.883997    535.656    971.318     4.784     2.829 -15.2
      1122      20.3338    420.365   1468.244     1.899     1.832  -7.0
      1123     1.696512   1037.727   1016.885     1.502     1.390  36.7
      1124    0.3112202    700.250   1405.739     1.543     0.776  18.8
      1125    0.2033962   1004.038   1048.641     0.960     0.943  88.8
      1126    0.0811343    605.336   1456.038     0.724     0.642  86.9
      1127    0.1533593    848.229    996.901     1.084     0.981  71.1
      1128    0.9189909    565.846   1423.550     1.613     1.446  71.5
      1129     11.82749    245.727   1045.901     1.927     1.811 -15.5
      1130     6.051153    882.107   1154.910     1.621     1.535  53.0
      1131     1.260345    620.796    993.829     1.375     1.304   6.3
      1132     3.539399    903.343    985.280     4.862     3.034  84.7
      1133     27.60927    502.656   1053.754     2.516     2.365 -21.8
      1134     0.103033    377.486   1462.562     0.841     0.817  15.7
      1135    0.5093124   1033.601    995.210     1.281     1.195  -7.1
      1136    0.2235484   1081.891   1009.866     0.857     0.669 -43.7
      1137      4.77217    359.612    994.688     1.426     1.403 -72.6
      1138    0.8593188    501.710   1455.779     1.141     1.124  29.7
      1139     13.90628   1009.989    995.879     1.748     1.555  58.9
      1140    0.2256232   1026.769   1086.464     1.244     1.046  56.3
      1141     2.233595    172.258   1065.437     2.076     1.454 -37.7
      1142     44.83416    274.667    871.766    16.486     4.748  49.2
      1143     111.3493    630.781   1391.504    11.508     5.620   2.7
      1144   0.07179847    810.683   1057.964     0.731     0.656  83.6
      1145     1.037725    197.478   1134.479     1.601     1.482  84.9
      1146     5.994068    349.717   1037.611     1.605     1.581 -46.5
      1147     3.178654    873.877   1021.000     5.030     4.180 -47.6
      1148    0.2525575   1092.262   1007.672     1.119     0.929  14.0
      1149     783.2462    472.261   1535.041    78.886    21.000   6.8
      1150    0.3067882    164.395   1036.539     1.339     1.189 -38.4
      1151    0.4111124    449.974   1181.719     2.398     1.540  44.5
      1152    -20.47685    807.890   1314.489    14.320     2.004 -84.7
      1153      6.01057    926.802   1100.972     1.374     1.327  63.2
      1154    0.2838161    209.883   1014.712     1.388     1.196 -33.5
      1155     3.353536    171.901   1177.137     1.593     1.430  37.2
      1156     1.230899    370.844   1224.538     1.351     1.302  61.2
      1157     0.207634   1028.950   1071.211     1.018     0.957  27.3
      1158     64.15977    614.395   1296.279    10.584     6.314  38.1
      1159   0.09010072    399.688   1261.824     0.839     0.686 -20.5
      1160    0.5282326    398.942   1313.392     2.065     1.346  56.9
      1161     14.46846   1121.376   1090.606     2.069     1.595  51.1
      1162     2.059708   1016.124   1043.213     1.311     1.279 -69.6
      1163    0.7834567    407.520   1005.508     1.195     1.174  57.7
      1164    0.1132919    939.771   1046.893     0.848     0.807 -35.7
      1165    0.9149492    284.820   1044.695     1.536     1.425 -35.6
      1166    0.4738989    265.361   1125.348     1.321     1.269 -30.5
      1167    0.5097938    714.736   1407.793     1.855     1.023  11.7
      1168     1.452501    889.377   1017.445     5.431     2.737 -50.9
      1169    0.1763607    168.311   1025.154     1.057     0.985 -59.3
      1170     0.265247    367.303   1104.297     1.234     1.041  36.5
      1171     59.35802    960.457   1270.581    25.315    13.958   7.3
      1172     19.09821    394.368   1299.428     2.604     2.200 -13.1
      1173    0.1905354     25.425   1396.088     0.741     0.689 -23.6
      1174     1.547605   1170.749   1042.950     1.282     1.243  47.8
      1175     0.645305    190.699   1040.059     1.423     1.315 -79.7
      1176    0.6673521    395.298   1041.167     1.323     1.265   1.0
      1177     2.618114    183.874   1057.527     1.518     1.464 -41.1
      1178     0.797183    518.315   1044.806     1.518     1.217  -5.9
      1179    0.2996268    706.533   1039.566     1.255     1.156  63.5
      1180      56.0689   1409.353   1018.234    29.918    13.184   1.9
      1181    0.1596334    331.282   1037.972     1.116     1.014  88.4
      1182     12.72984   1137.841   1031.995     1.606     1.410  45.7
      1183    0.2006987    175.104   1187.867     1.091     1.086  58.5
      1184    0.1159148    830.391   1187.141     0.918     0.728  11.9
      1185    0.9952401    324.286   1062.574     2.017     1.553 -20.2
      1186      0.34032    704.292   1429.184     0.966     0.917 -61.6
      1187    0.5140672    623.370   1436.293     1.300     1.214  -4.3
      1188    0.1707902    329.497   1061.505     1.071     0.876 -72.5
      1189     219.9264    243.727   1364.672    12.043     2.058 -36.1
      1190     0.729731    798.745   1125.410     1.483     1.328  -4.8
      1191     2.077013    470.990    992.853     3.652     2.151  83.8
      1192     10.82884    765.812   1072.045     1.874     1.832  36.6
      1193    0.4451556     42.609   1435.343     1.108     1.019  73.3
      1194      2.86684    580.042   1056.733     1.442     1.401 -35.3
      1195    0.3540691   1171.502   1082.366     0.914     0.902  49.1
      1196    0.4123881   1112.466   1006.326     1.303     1.301 -12.9
      1197     4.099752     64.873   1401.878     1.338     1.260  65.6
      1198     10.54771    415.224   1060.876     2.699     2.399 -21.8
      1199     38.57273   1198.833   1008.314    30.519     5.254 -83.1
      1200     2.319423    309.714   1060.774     3.718     1.835 -14.0
      1201     2.141946     81.932   1385.198     1.454     1.363  65.3
      1202     22.41901    455.137   1043.713    19.599    11.814 -73.4
      1203    0.2669832     87.998   1421.360     0.980     0.908  15.6
      1204    0.2737275    376.530   1066.180     1.739     1.125 -55.6
      1205     0.597352   1043.530   1065.594     1.226     1.194  69.5
      1206     0.330523    607.651   1067.375     1.348     0.953  16.0
      1207    0.1218253    418.024   1419.499     1.193     0.722 -88.7
      1208    0.3046966    421.878   1378.454     1.465     1.014  18.3
      1209    0.3881768    566.460   1410.596     1.632     0.955  15.9
      1210   0.08733853   1019.142   1087.184     0.773     0.669 -43.1
      1211    0.2933947   1015.081   1124.937     1.079     1.035  58.4
      1212     6.025695   1181.303   1026.092     1.985     1.564  88.9
      1213    0.4664228    853.368   1035.202     1.543     1.319  76.2
      1214     12.89939    813.439   1084.473     1.659     1.606 -60.1
      1215     65.03128   1081.164   1274.233    35.173    12.693  -1.1
      1216     0.510106    707.227   1406.858     1.955     1.018  -7.4
      1217     41.75414    376.136   1043.146     5.794     4.228  48.8
      1218     16.71189    959.000   1148.604     1.707     1.554  55.7
      1219      1.55304    425.920   1279.959     1.496     1.372  74.7
      1220     483.8929     75.457   1480.077    92.652    28.879 -17.9
      1221    0.9634681    958.440   1004.048     1.317     1.294  22.7
      1222     1.025668    484.611   1340.985     1.625     1.400 -73.9
      1223     1949.819    270.303   1327.411    29.967    17.233  -5.4
      1224     1.708841    368.147   1389.642     1.825     1.504  24.0
      1225     17.51679    741.674   1107.511     5.309     3.647 -85.3
      1226    0.1291093    685.432   1167.973     1.080     0.939 -88.3
      1227      12.2035    713.941   1079.004     2.868     2.420  13.4
      1228     5.667369   1171.953   1022.806     1.338     1.290  48.7
      1229    0.2125701    522.495   1092.959     1.281     1.005  32.4
      1230     0.937372    835.432   1100.251     1.393     1.310  78.2
      1231    0.1504931    535.936   1100.842     1.094     0.952 -43.8
      1232     1.441349    440.212   1071.379     2.422     1.557  67.8
      1233      1.24454    704.797   1060.959     3.231     3.082  -8.2
      1234     4.005579    437.847   1032.952     9.595     4.304  80.7
      1235      3.24629    752.594   1150.648     2.155     2.003 -23.2
      1236    0.4817392   1071.252   1005.917     1.294     0.706  84.7
      1237     3.184819    756.247   1157.140     2.035     1.738  -5.7
      1238     4.236534    493.848   1023.529     2.721     2.048   2.3
      1239     69.85874   1048.291   1134.635     7.125     4.605  65.9
      1240     3.043491    496.131   1010.260     3.603     2.019   5.6
      1241     5.619561    431.897   1095.612     1.742     1.578  34.9
      1242     1.691276   1146.090   1080.627     1.146     1.094  72.2
      1243     61.20795     64.201   1529.340    22.910    14.828  -9.7
      1244    0.2481424     39.747   1387.380     1.079     0.875  24.8
      1245    0.1434792     35.528   1385.527     0.888     0.785  53.4
      1246     25.40688    302.200   1087.417     3.157     2.688 -33.2
      1247     -22.4701    888.488   1345.975    23.541    14.086 -89.6
      1248     3.566072    143.618   1090.072     1.336     1.285  87.3
      1249   0.09671681   1147.798   1013.240     0.720     0.652  45.4
      1250     2.931163    116.999   1282.441     1.336     1.276  57.6
      1251     0.282415    869.530   1187.742     1.245     1.148  65.6
      1252    0.4764178    593.536   1183.633     1.242     1.202 -72.9
      1253      1.30848    435.144   1173.622     5.068     2.135  76.2
      1254    0.3477152    909.305   1151.150     1.078     1.033  31.3
      1255    0.1816999    392.392   1022.720     0.897     0.867 -24.6
      1256   0.09553418    464.372   1292.515     0.888     0.862 -11.4
      1257     2.037829    369.985   1342.400     1.476     1.374  49.8
      1258     275.9563    241.524   1286.858    11.928    10.491  57.0
      1259   0.09351586    733.641   1293.904     0.848     0.689 -24.7
      1260     170.0841     98.093    888.687     8.729     1.932  48.1
      1261     4.786634    402.164   1106.428     1.971     1.705 -45.3
      1262     12.00973    746.635   1183.466    29.170    10.587 -72.9
      1263    0.4012317    362.876   1249.243     1.526     1.414 -24.5
      1264     15.11826    194.921   1169.102     2.136     1.902 -34.0
      1265    0.1232006    788.850   1269.024     0.928     0.838 -88.1
      1266    0.2357309    789.974   1107.388     1.408     1.146  86.5
      1267     101.5214    153.078    841.236    12.143     9.182  27.6
      1268   0.08684959    120.109   1098.943     0.744     0.633  49.7
      1269    0.2442913    354.359   1124.757     1.024     0.986 -76.8
      1270    0.2441825    143.124   1315.655     0.996     0.961  46.2
      1271    0.6033453    510.642   1319.682     2.906     1.726  63.3
      1272    0.9920046    607.597   1109.693     1.384     1.345 -24.6
      1273     23.92555    311.165   1094.472     2.585     1.924 -63.3
      1274     111.6024    716.688   1337.422    46.835     8.242  46.2
      1275      5.55075    176.288   1103.887     2.658     2.128 -33.3
      1276     1.864225    629.656   1119.372     2.782     1.641  83.1
      1277   0.09216525    400.022   1135.882     0.756     0.727  42.7
      1278    0.6978248    287.540   1128.075     1.278     1.269  62.6
      1279     387.7411     98.606    865.305    10.558     4.344 -75.4
      1280     1.398309   1116.172   1050.606     1.350     1.298 -85.9
      1281    0.5283182   1113.141   1120.006     1.133     1.058  34.1
      1282    0.7223766    213.828   1118.878     2.553     1.834 -19.0
      1283     1.350515    154.600   1111.944     1.419     1.382  86.6
      1284     2.537696    819.034   1116.972     4.797     2.724  51.7
      1285    0.3891053    650.266   1145.648     1.528     0.993 -59.8
      1286     5.713688    179.684   1116.429     7.885     4.182 -15.2
      1287    0.8083727    878.667   1125.572     1.216     1.178  59.6
      1288   0.09379978    427.634   1151.725     0.983     0.776  30.1
      1289     41.90041    556.379   1224.062     3.647     2.906  63.7
      1290     29.88599    234.372   1143.188     3.734     3.138   6.5
      1291    0.5239673    615.041   1139.056     1.404     1.209  78.0
      1292    0.5030406    164.204   1139.498     1.319     1.164  85.8
      1293     2.572099    360.661   1137.683     1.398     1.361   9.5
      1294     10.91169    229.963   1122.913     2.099     1.667 -24.3
      1295     20.79476    556.755   1198.971     2.388     2.203 -39.8
      1296     11.28829    825.308   1133.544     5.731     2.353 -14.5
      1297    0.5089965   1143.358    902.032     1.525     1.335 -68.6
      1298     96.04937    209.294   1412.980    12.164    11.453   1.4
      1299     11.59373    825.539   1127.653     6.934     2.114 -14.3
      1300    0.6049901    860.637   1140.207     1.336     1.283  66.9
      1301    0.4289364    666.919   1139.786     1.263     1.191  85.5
      1302     1.361662    340.585   1157.559     1.348     1.329  58.8
      1303    0.2530271     97.458   1122.770     1.047     1.033 -46.8
      1304     3.367895    856.458   1067.557     1.762     1.600  32.1
      1305     15.01298    655.060   1217.753     2.958     2.600  14.4
      1306     1.112843    581.134   1157.089     3.342     1.391  65.8
      1307     7.553988    839.300   1149.105    18.103    14.505 -43.1
      1308    0.9160051    461.451   1319.440     1.744     1.352  -7.8
      1309     0.659035    463.529   1303.501     1.432     1.370 -73.2
      1310    0.1609219    125.347   1105.569     1.259     0.540 -78.9
      1311    0.1605385    406.739   1206.921     0.992     0.921  14.2
      1312     0.335819    622.861   1245.974     1.229     1.065  45.8
      1313    0.8609239    238.708   1167.863     1.359     1.320  84.2
      1314    0.1520454    551.771   1313.965     1.093     0.998 -62.7
      1315    0.2439642    203.878   1209.999     1.095     1.072 -42.0
      1316     42.03365    654.688   1076.272    13.139     5.151 -74.3
      1317    0.2077406    509.806   1338.370     1.171     1.016  61.2
      1318    0.3294617    163.433   1188.697     1.186     1.156  83.4
      1319    0.2403153    554.445   1320.676     1.196     1.088  44.2
      1320    0.9313343    345.180   1198.285     1.409     1.401 -44.8
      1321     2.087985    216.371   1208.051     1.416     1.336  60.5
      1322    0.2638412    801.620   1320.096     1.319     1.239 -80.7
      1323     1.964025    470.326   1308.731     2.474     1.510  60.2
      1324   0.05308721    931.996   1170.040     0.605     0.586  89.6
      1325    0.4342872    413.262   1305.428     1.196     0.967 -13.7
      1326     2.228058    750.406   1086.985     2.866     2.096 -18.0
      1327     4.634818    878.788    989.069     3.296     2.510  27.3
      1328     1.806764    761.824   1124.056     7.149     3.563 -27.4
      1329     3.366148    104.639   1315.255     1.377     1.334  48.6
      1330    0.4044854    375.307   1302.289     2.463     1.448 -10.0
      1331     26.85341   1063.304   1082.032     6.981     4.537 -54.9
      1332    0.4632359    578.926   1198.881     1.194     1.144  24.9
      1333     19.17228   1076.672   1192.546     5.579     4.669 -62.4
      1334      502.944   1204.673   1205.370   101.563    23.306  -0.9
      1335     3.247133    723.989   1288.467     1.518     1.446 -14.9
      1336    0.8045944    718.121   1162.926     1.512     1.436  75.9
      1337    0.2641476    625.161   1250.705     1.157     0.998  83.4
      1338    0.1492111    499.339   1278.942     1.148     0.934  76.1
      1339     2.604477    510.501   1200.272     1.492     1.467 -56.8
      1340   0.07203497    391.956   1119.670     0.736     0.652   5.3
      1341    0.1680823    398.741   1086.975     1.079     0.956  63.4
      1342     8.349661    851.033   1083.450     1.701     1.580  81.8
      1343    0.3433237    499.366   1192.105     1.273     1.195  55.3
      1344    0.2722181    876.768   1132.927     1.047     1.005 -56.5
      1345    0.1804206    204.702   1141.630     1.268     1.152  80.8
      1346     10.28916    717.845   1291.845     1.618     1.560  61.9
      1347     0.116335    196.003   1192.161     0.934     0.826   3.0
      1348      1.23457    486.860   1277.993     1.366     1.352  74.6
      1349   0.07798112    957.416   1116.573     0.862     0.856  40.9
      1350     7.405906   1181.225    978.154     1.593     1.501  17.8
      1351    0.2438872    742.850   1235.859     1.121     1.055  53.9
      1352    0.1225956    473.524   1203.779     0.962     0.960   7.0
      1353    0.2166626    232.123   1201.047     1.088     1.065 -81.2
      1354     1.775116   1064.840   1147.145     1.217     1.192  79.0
      1355    0.2233012    676.450   1277.150     1.160     1.072 -18.7
      1356     5.928845    464.300   1256.835     2.204     1.830 -28.8
      1357      1.63379    778.158   1227.008     4.350     2.389 -54.9
      1358    0.4077589    551.189   1277.145     1.344     1.295  63.4
      1359     0.483463    457.200   1272.012     2.379     1.550  -7.4
      1360     41.20004   1141.496   1206.393     3.195     3.154   2.4
      1361     9.498406    136.843   1235.239     1.579     1.489 -47.8
      1362    0.9754784    454.947   1264.554     2.821     2.101 -32.7
      1363     0.413834    392.013   1269.271     1.105     1.096  89.0
      1364    0.2551457    505.342   1271.213     2.317     0.915  83.2
      1365     7.229181    775.077   1257.536     1.620     1.523 -62.7
      1366   0.09805658    473.523   1239.704     0.914     0.799 -18.7
      1367    0.1277522    590.544   1215.689     0.925     0.918  11.5
      1368    0.2882292    688.118   1210.738     1.013     0.824  55.8
      1369     4.275243    776.941   1234.100     2.447     1.752  14.3
      1370     30.43342   1161.704   1210.817     2.885     2.585  35.5
      1371     1.911203    618.116   1238.001     1.370     1.305 -89.1
      1372      73.9297   1150.931   1173.281     4.879     3.764  35.3
      1373     2.887916    765.664   1210.821     8.662     6.851  64.9
      1374     65.39243    978.940   1188.092    13.845    11.021 -36.4
      1375     20.65439   1147.413   1187.014     2.880     2.555  16.2
      1376    0.3816881    719.237   1231.908     1.174     1.142 -30.5
      1377    0.1400012    750.494   1249.792     0.930     0.897 -16.5
      1378     95.37312   1001.403   1161.256    21.913     7.600  72.7
      1379     17.40949    420.602   1207.771     3.031     2.282 -33.2
      1380     11.65303    650.862   1190.586    12.548     9.336 -11.3
      1381     5.569438    229.127   1215.656     1.659     1.423  51.2
      1382     17.44374    309.861   1141.478     3.807     3.354 -37.2
      1383    0.1769449    401.389   1266.743     0.967     0.897  33.5
      1384      2.64725    350.493   1228.042     1.476     1.461 -73.5
      1385    0.9451782    675.645   1213.795     2.708     1.850 -62.5
      1386     7.859115    804.234   1220.413     1.595     1.525  85.8
      1387      103.856    645.589   1050.892    25.197    12.956 -78.5
      1388    0.6210539    445.641   1132.431     2.053     1.343  50.0
      1389     12.17764    634.828   1163.370     4.229     3.787   7.6
      1390    0.2140887    731.961   1222.432     1.084     0.942   0.4
      1391    0.4270893   1134.813   1011.535     1.040     0.987  78.7
      1392    0.1484262    114.976   1215.707     0.829     0.722 -89.9
      1393     42.08814    536.582   1178.418     4.005     3.300 -26.8
      1394     43.01625    175.448   1218.832    18.420     4.154  44.9
      1395    0.2185004    694.115   1203.781     1.156     1.027  50.0
      1396     0.119902    504.688   1212.641     1.002     0.874  38.7
      1397     2.199854    466.789   1143.088     8.301     2.778 -79.3
      1398     5.383684    722.187   1198.831     1.726     1.527  75.9
      1399     5.858662    294.990   1188.536     1.726     1.636   3.2
      1400    0.2656472    939.756   1163.100     1.000     0.943  63.7
      1401    0.8794733    298.355   1178.470     1.541     1.422  68.4
      1402   0.09590605    740.950   1013.063     0.770     0.766 -37.3
      1403    0.2490929    466.885   1116.306     1.348     1.090 -65.4
      1404    0.3214004   1022.952   1122.716     1.223     1.100 -89.9
      1405     8.916106   1005.422   1110.162     1.907     1.411  50.3
      1406     0.238942    446.264   1108.735     1.076     1.060  39.1
      1407     5.852401    365.706   1074.002     1.842     1.686 -19.5
      1408   0.08073241    924.076   1030.272     0.876     0.748  88.2
      1409    0.2583826    464.265   1185.592     1.601     1.301  37.4
      1410     1.198053    657.979   1210.765     1.802     1.615  46.4
      1411     10.82673    276.689   1155.845     2.935     1.853 -33.4
      1412    0.1545257    447.792   1170.642     1.081     0.921  81.8
      1413    0.1088775    910.974   1170.479     0.934     0.749 -88.0
      1414     6.259995   1085.948   1170.511     1.268     1.237  67.2
      1415    0.1807754    601.354   1193.553     1.107     0.998 -15.1
      1416    0.4773281    458.552   1131.531     2.428     1.584  58.0
      1417     4.594819    708.593   1221.997     1.672     1.492 -25.8
      1418    0.5747198    462.319   1125.785     2.867     1.779   8.1
      1419    0.2178925    933.867   1142.597     0.910     0.844  84.3
      1420    0.5974976    786.137   1159.006     1.451     0.873 -39.5
      1421     11.14915    273.788   1148.649     1.632     1.495 -20.7
      1422    0.5695252    723.465   1167.545     2.299     1.384 -59.5
      1423    0.9295926    983.982   1158.810     1.193     1.151  85.2
      1424     1.728249    875.088   1148.797     1.437     1.340  80.5
      1425     0.506336    736.077   1139.936     2.476     1.719 -48.9
      1426    0.2799607    851.497   1073.731     1.467     1.202  55.7
      1427    0.3874388    557.012   1011.864     1.298     1.105 -45.6
      1428    0.2570516    544.438   1011.922     1.197     1.144 -17.1
